File: Data/Thesis_Samples_Data/Flexural_Cast_2/DAQ- Crosshead, … - (Timed).txt
File Path: C:\Users\Lab User\Desktop\Will\Thesis Tests\Test Run 8 04-8-22 15 20 16 PM\DAQ- Crosshead, … - (Timed).txt
Test: MTS EM Flexure (3-Point Bend) - Will 1
Test Run: Test Run 8
Date: 4/8/2022 3:18:15 PM

Crosshead 	Load 	Time
mm	N	sec
0	0.720948	0.02
4.88281e-05	0.806273	0.08
4.88281e-05	0.863959	0.14
0.000146484	0.638588	0.2
0.000195312	0.931835	0.26
0.000244141	0.901836	0.32
0.000341797	0.999833	0.38
0.000439453	1.08357	0.44
0.000585938	1.15574	0.5
0.000732422	1.60307	0.56
0.000878906	1.62883	0.62
0.00102539	1.92423	0.68
0.00117188	2.10833	0.74
0.00131836	2.11678	0.8
0.00146484	2.54482	0.86
0.00161133	2.56907	0.92
0.00170898	2.85316	0.98
0.00185547	3.0634	1.04
0.00200195	3.19292	1.1
0.00209961	3.53458	1.16
0.00224609	3.51972	1.22
0.00234375	3.876	1.28
0.00249023	3.91991	1.34
0.00263672	4.07884	1.4
0.00273437	4.41491	1.46
0.00288086	4.40803	1.52
0.00302734	4.72459	1.58
0.00317383	4.81852	1.64
0.00332031	5.07672	1.7
0.0034668	5.32159	1.76
0.00361328	5.42304	1.82
0.00375977	5.80981	1.88
0.00385742	6.00011	1.94
0.00400391	6.14197	2
0.00415039	6.38018	2.06
0.00429687	6.51982	2.12
0.00439453	6.86077	2.18
0.00454102	6.90717	2.24
0.00463867	7.06929	2.3
0.00478516	7.33729	2.36
0.00493164	7.31556	2.42
0.0050293	7.63023	2.48
0.00517578	7.78203	2.54
0.00527344	7.93116	2.6
0.00541992	8.1355	2.66
0.00551758	8.20496	2.72
0.00566406	8.49978	2.78
0.00576172	8.55106	2.84
0.00585938	8.74523	2.9
0.00600586	8.95026	2.96
0.00610352	9.06361	3.02
0.00625	9.27001	3.08
0.00634766	9.29445	3.14
0.00644531	9.55846	3.2
0.0065918	9.81518	3.26
0.00668945	9.82236	3.32
0.00678711	10.1347	3.38
0.00693359	10.0782	3.44
0.00703125	10.4481	3.5
0.00717773	10.5062	3.56
0.00727539	10.6295	3.62
0.00737305	10.9453	3.68
0.0074707	10.9389	3.74
0.00761719	11.1745	3.8
0.00771484	11.2163	3.86
0.0078125	11.4394	3.92
0.00791016	11.6416	3.98
0.00805664	11.6452	4.04
0.0081543	11.8722	4.1
0.00825195	12.0346	4.16
0.00839844	12.1806	4.22
0.00849609	12.3763	4.28
0.00859375	12.4442	4.34
0.00869141	12.8102	4.4
0.00883789	12.8669	4.46
0.00893555	13.0482	4.52
0.00908203	13.2288	4.58
0.00917969	13.4188	4.64
0.00932617	13.6424	4.7
0.00942383	13.7014	4.76
0.00957031	13.9461	4.82
0.00966797	14.1584	4.88
0.00981445	14.3483	4.94
0.00996094	14.7239	5
0.0100586	14.6938	5.06
0.0102051	14.9189	5.12
0.0103516	15.1233	5.18
0.0104492	15.3031	5.24
0.0105957	15.6282	5.3
0.0106934	15.574	5.36
0.0108398	15.8264	5.42
0.0109375	16.0326	5.48
0.011084	16.2484	5.54
0.0111816	16.5193	5.6
0.0113281	16.6068	5.66
0.0114258	16.9634	5.72
0.0115723	17.0468	5.78
0.0117188	17.2376	5.84
0.0118164	17.4848	5.9
0.0119629	17.5374	5.96
0.0120605	17.9462	6.02
0.012207	18.0398	6.08
0.0123047	18.2082	6.14
0.0124023	18.5133	6.2
0.0125488	18.5588	6.26
0.0126465	18.8678	6.32
0.012793	19.0132	6.38
0.0128906	19.1526	6.44
0.0129883	19.4619	6.5
0.0131348	19.3996	6.56
0.0132324	19.8031	6.62
0.0133301	19.9185	6.68
0.0134766	20.0478	6.74
0.0135742	20.3754	6.8
0.0137207	20.5715	6.86
0.0138184	20.8175	6.92
0.013916	20.9544	6.98
0.0140137	21.1876	7.04
0.0141602	21.3964	7.1
0.0142578	21.6	7.16
0.0143555	21.807	7.22
0.014502	21.888	7.28
0.0145996	22.1282	7.34
0.0146973	22.3878	7.4
0.0147949	22.5401	7.46
0.0149414	22.856	7.52
0.0150391	22.8836	7.58
0.0151367	23.179	7.64
0.0152832	23.3903	7.7
0.0153809	23.5243	7.76
0.0155273	23.9138	7.82
0.015625	23.9672	7.88
0.0157715	24.4108	7.94
0.0158691	24.4598	8
0.0160156	24.8049	8.06
0.0161133	25.076	8.12
0.0162598	25.2005	8.18
0.0163574	25.5236	8.24
0.0165039	25.6731	8.3
0.0166504	25.9832	8.36
0.0167969	26.2866	8.42
0.0168945	26.4413	8.48
0.017041	26.8634	8.54
0.0171875	26.9614	8.6
0.017334	27.3873	8.66
0.0174316	27.5445	8.72
0.0175781	27.7721	8.78
0.0177246	28.2117	8.84
0.0178223	28.3135	8.9
0.0179688	28.5948	8.96
0.0180664	28.8018	9.02
0.0182129	28.9649	9.08
0.0183105	29.3781	9.14
0.018457	29.4588	9.2
0.0185547	29.794	9.26
0.0187012	30.1622	9.32
0.0187988	30.3293	9.38
0.0189453	30.6612	9.44
0.019043	30.764	9.5
0.0191895	31.0852	9.56
0.0192871	31.3329	9.62
0.0194336	31.6078	9.68
0.0195312	31.9881	9.74
0.0196777	31.9643	9.8
0.0197754	32.495	9.86
0.0199219	32.6261	9.92
0.0200195	32.8355	9.98
0.0201172	33.2209	10.04
0.0202148	33.3006	10.1
0.0203613	33.6383	10.16
0.020459	33.8817	10.22
0.0206055	34.2099	10.28
0.0207031	34.4401	10.34
0.0208008	34.465	10.4
0.0209473	34.8765	10.46
0.0210449	34.9851	10.52
0.0211426	35.3468	10.58
0.0212891	35.5424	10.64
0.0213867	35.6846	10.7
0.0214844	36.1731	10.76
0.021582	36.1968	10.82
0.0217285	36.5529	10.88
0.0218262	36.8602	10.94
0.0219238	36.9065	11
0.0220703	37.4028	11.06
0.022168	37.5751	11.12
0.0223145	37.8939	11.18
0.0224121	38.2215	11.24
0.0225586	38.3682	11.3
0.0226562	38.8547	11.36
0.0227539	38.9327	11.42
0.0229004	39.2854	11.48
0.0230469	39.5468	11.54
0.0231445	39.9055	11.6
0.023291	40.4332	11.66
0.0234375	40.4093	11.72
0.0235352	40.878	11.78
0.0236816	41.1827	11.84
0.0238281	41.4635	11.9
0.0239258	41.8273	11.96
0.0240723	41.9318	12.02
0.0242188	42.4203	12.08
0.0243164	42.594	12.14
0.0244629	42.9053	12.2
0.0245605	43.2894	12.26
0.024707	43.5667	12.32
0.0248047	43.9865	12.38
0.0249512	44.0468	12.44
0.0250488	44.4842	12.5
0.0251953	44.7578	12.56
0.025293	44.9689	12.62
0.0254395	45.3823	12.68
0.0255371	45.6064	12.74
0.0256836	45.9552	12.8
0.0257812	46.2641	12.86
0.0258789	46.4227	12.92
0.0260254	46.8516	12.98
0.026123	47.0676	13.04
0.0262695	47.4225	13.1
0.0263672	47.6811	13.16
0.0264648	47.9642	13.22
0.0266113	48.3665	13.28
0.026709	48.435	13.34
0.0268066	48.8621	13.4
0.0269531	49.1619	13.46
0.0270508	49.4433	13.52
0.0271484	49.756	13.58
0.0272949	49.8861	13.64
0.0273926	50.3027	13.7
0.0274902	50.5257	13.76
0.0276367	50.82	13.82
0.0277344	51.1939	13.88
0.027832	51.2935	13.94
0.0279297	51.8054	14
0.0280273	51.9967	14.06
0.0281738	52.3414	14.12
0.0282715	52.6565	14.18
0.028418	52.7688	14.24
0.0285156	53.3444	14.3
0.0286133	53.5001	14.36
0.0287598	53.7404	14.42
0.0288574	54.1484	14.48
0.0290039	54.4223	14.54
0.0291016	54.913	14.6
0.029248	55.115	14.66
0.0293457	55.4223	14.72
0.0294922	55.8195	14.78
0.0295898	56.0209	14.84
0.0297363	56.5676	14.9
0.029834	56.7388	14.96
0.0299805	57.1888	15.02
0.030127	57.5743	15.08
0.0302246	57.8007	15.14
0.0303711	58.3669	15.2
0.0305176	58.6282	15.26
0.0306152	59.0108	15.32
0.0307617	59.316	15.38
0.0309082	59.7195	15.44
0.0310059	60.1927	15.5
0.0311523	60.4315	15.56
0.0312988	60.9581	15.62
0.0313965	61.1999	15.68
0.031543	61.5969	15.74
0.0316406	61.9923	15.8
0.0317871	62.1955	15.86
0.0318848	62.7206	15.92
0.0320313	63.0167	15.98
0.0321289	63.3535	16.04
0.0322754	63.724	16.1
0.032373	64.005	16.16
0.0325195	64.4602	16.22
0.0326172	64.7288	16.28
0.0327637	65.1224	16.34
0.0328613	65.6086	16.4
0.0330078	65.7642	16.46
0.0331055	66.3078	16.52
0.0332031	66.5646	16.58
0.0333496	66.8334	16.64
0.0334473	66.4899	16.7
0.0335449	66.7447	16.76
0.0336914	67.1018	16.82
0.0337891	67.2907	16.88
0.0338867	67.625	16.94
0.0340332	67.9783	17
0.0341309	68.2333	17.06
0.0342285	68.7049	17.12
0.0343262	68.7912	17.18
0.0344727	69.2732	17.24
0.0345703	69.7116	17.3
0.0347168	69.8989	17.36
0.0348145	70.3241	17.42
0.0349121	70.526	17.48
0.0350098	70.9355	17.54
0.0351562	71.1951	17.6
0.0352539	71.4917	17.66
0.0353516	72.0836	17.72
0.035498	72.2429	17.78
0.0355957	72.6512	17.84
0.0357422	72.9681	17.9
0.0358398	73.4019	17.96
0.0359863	73.8579	18.02
0.036084	74.0863	18.08
0.0362305	74.6667	18.14
0.036377	75.0552	18.2
0.0364746	75.346	18.26
0.0366211	75.8869	18.32
0.0367676	76.1595	18.38
0.0368652	76.8632	18.44
0.0370117	77.0492	18.5
0.0371582	77.5051	18.56
0.0372559	77.9268	18.62
0.0374023	78.2186	18.68
0.0375488	78.8169	18.74
0.0376465	79.0886	18.8
0.037793	79.5904	18.86
0.0378906	79.9954	18.92
0.0380371	80.2622	18.98
0.0381348	80.8578	19.04
0.0382813	81.0138	19.1
0.0383789	81.4419	19.16
0.0384766	81.8365	19.22
0.038623	82.1545	19.28
0.0387207	82.6612	19.34
0.0388672	82.9316	19.4
0.0390137	83.4737	19.46
0.0391113	83.8056	19.52
0.0392578	84.2299	19.58
0.0393555	84.7114	19.64
0.039502	85.0077	19.7
0.0395996	85.5536	19.76
0.0396973	85.7795	19.82
0.0398438	86.1401	19.88
0.0399414	86.5605	19.94
0.0400391	86.8878	20
0.0401855	87.3699	20.06
0.0402832	87.6788	20.12
0.0403809	88.0385	20.18
0.0405273	88.4301	20.24
0.040625	88.797	20.3
0.0407227	89.324	20.36
0.0408203	89.5374	20.42
0.0409668	89.9833	20.48
0.0410645	90.3793	20.54
0.0411621	90.6912	20.6
0.0413086	91.1861	20.66
0.0414062	91.4578	20.72
0.0415039	91.8751	20.78
0.0416504	92.3634	20.84
0.041748	92.6328	20.9
0.0418457	93.155	20.96
0.0419922	93.4511	21.02
0.0420898	93.9033	21.08
0.0421875	94.3625	21.14
0.042334	94.756	21.2
0.0424316	95.2164	21.26
0.0425781	95.4538	21.32
0.0426758	96.0224	21.38
0.0428223	96.4209	21.44
0.0429199	96.8835	21.5
0.0430664	97.5384	21.56
0.0431641	97.8932	21.62
0.0433105	98.4392	21.68
0.043457	98.8716	21.74
0.0435547	99.3748	21.8
0.0437012	99.8787	21.86
0.0437988	100.26	21.92
0.0439453	100.901	21.98
0.0440918	101.305	22.04
0.0441895	101.837	22.1
0.0443359	102.32	22.16
0.0444336	102.717	22.22
0.0445801	103.324	22.28
0.0446777	103.645	22.34
0.0448242	104.22	22.4
0.0449219	104.693	22.46
0.0450684	105.118	22.52
0.045166	105.767	22.58
0.0453125	106.188	22.64
0.0454102	106.764	22.7
0.0455566	107.142	22.76
0.0456543	107.626	22.82
0.0458008	108.171	22.88
0.0458984	108.604	22.94
0.0460449	109.171	23
0.0461426	109.555	23.06
0.0462402	110.112	23.12
0.0463867	110.572	23.18
0.0464844	110.97	23.24
0.0466309	111.701	23.3
0.0467285	112.081	23.36
0.0468262	112.55	23.42
0.0469727	113.119	23.48
0.0470703	113.489	23.54
0.047168	114.238	23.6
0.0473145	114.513	23.66
0.0474121	115.127	23.72
0.0475098	115.646	23.78
0.0476562	116.119	23.84
0.0477539	116.683	23.9
0.0478516	117.083	23.96
0.0479492	117.569	24.02
0.0480957	118.131	24.08
0.0481934	118.559	24.14
0.0483398	119.348	24.2
0.0484375	119.67	24.26
0.0485352	120.38	24.32
0.0486816	120.928	24.38
0.0487793	121.363	24.44
0.0489258	122.24	24.5
0.0490234	122.56	24.56
0.0491699	123.406	24.62
0.0492676	123.863	24.68
0.0494141	124.474	24.74
0.0495117	125.133	24.8
0.0496582	125.548	24.86
0.0497559	126.59	24.92
0.0499023	127.097	24.98
0.0500488	127.776	25.04
0.0501465	128.641	25.1
0.050293	129.17	25.16
0.0504395	130.056	25.22
0.0505859	130.781	25.28
0.0506836	131.355	25.34
0.0507813	132.138	25.4
0.0509277	132.813	25.46
0.0510742	133.731	25.52
0.0512207	134.31	25.58
0.0513184	135.142	25.64
0.0514648	135.777	25.7
0.0515625	136.417	25.76
0.051709	137.207	25.82
0.0518066	137.902	25.88
0.0519531	138.726	25.94
0.0520508	139.462	26
0.0521973	140.122	26.06
0.0522949	141.011	26.12
0.0524414	141.413	26.18
0.0525391	142.389	26.24
0.0526855	143.058	26.3
0.0527832	143.785	26.36
0.0529297	144.523	26.42
0.0530273	145.1	26.48
0.053125	145.939	26.54
0.0532715	146.697	26.6
0.0533691	147.191	26.66
0.0534668	148.186	26.72
0.0536133	148.705	26.78
0.0537109	149.678	26.84
0.0538574	150.372	26.9
0.0539551	150.992	26.96
0.0540527	151.633	27.02
0.0541504	152.36	27.08
0.054248	153.27	27.14
0.0543945	153.819	27.2
0.0544922	154.578	27.26
0.0545898	155.392	27.32
0.0547363	156.059	27.38
0.054834	157.014	27.44
0.0549316	157.791	27.5
0.0550781	158.572	27.56
0.0551758	159.252	27.62
0.0552734	160.205	27.68
0.0554199	161.044	27.74
0.0555176	161.721	27.8
0.0556641	162.739	27.86
0.0557617	163.598	27.92
0.0559082	164.419	27.98
0.0560059	165.352	28.04
0.0561523	166.304	28.1
0.05625	167.261	28.16
0.0563965	168.396	28.22
0.0564941	169.367	28.28
0.0566406	170.384	28.34
0.0567871	171.422	28.4
0.0568848	172.411	28.46
0.0570313	173.493	28.52
0.0571777	174.52	28.58
0.0572754	175.588	28.64
0.0574219	176.458	28.7
0.0575684	177.697	28.76
0.057666	178.514	28.82
0.0578125	179.557	28.88
0.0579102	180.426	28.94
0.0580566	181.515	29
0.0581543	182.736	29.06
0.0583008	183.471	29.12
0.0583984	184.559	29.18
0.0585449	185.662	29.24
0.0586426	186.53	29.3
0.0587891	187.586	29.36
0.0588867	188.482	29.42
0.0590332	189.635	29.48
0.0591309	190.694	29.54
0.0592773	191.631	29.6
0.059375	192.668	29.66
0.0594727	193.528	29.72
0.0596191	194.63	29.78
0.0597168	195.568	29.84
0.0598633	196.48	29.9
0.0599609	197.472	29.96
0.0600586	198.369	30.02
0.0602051	199.513	30.08
0.0603027	200.434	30.14
0.0604004	201.397	30.2
0.0605469	202.396	30.26
0.0606445	203.285	30.32
0.0607422	204.512	30.38
0.0608887	205.309	30.44
0.0609863	206.259	30.5
0.061084	207.427	30.56
0.0611816	208.282	30.62
0.0613281	209.42	30.68
0.0614258	210.332	30.74
0.0615234	211.402	30.8
0.0616699	212.296	30.86
0.0617676	213.272	30.92
0.0618652	214.504	30.98
0.0620117	215.422	31.04
0.0621094	216.59	31.1
0.062207	217.506	31.16
0.0623535	218.579	31.22
0.0625	219.99	31.28
0.0625977	220.892	31.34
0.0626953	221.986	31.4
0.0628418	223.394	31.46
0.0629883	224.423	31.52
0.0630859	225.769	31.58
0.0632324	226.716	31.64
0.0633789	228.115	31.7
0.0634766	229.317	31.76
0.063623	230.494	31.82
0.0637695	231.841	31.88
0.063916	232.993	31.94
0.0640137	234.565	32
0.0641602	235.552	32.06
0.0642578	236.729	32.12
0.0644043	237.786	32.18
0.064502	238.968	32.24
0.0646484	239.954	32.3
0.0647949	241.259	32.36
0.0648926	242.558	32.42
0.0650391	243.683	32.48
0.0651367	244.691	32.54
0.0652832	246.044	32.6
0.0653809	247.114	32.66
0.0655273	248.311	32.72
0.065625	249.457	32.78
0.0657715	250.594	32.84
0.0658691	251.952	32.9
0.0660156	252.933	32.96
0.0661133	254.143	33.02
0.0662598	255.219	33.08
0.0663574	256.135	33.14
0.0664551	257.448	33.2
0.0666016	258.336	33.26
0.0666992	259.642	33.32
0.0667969	260.584	33.38
0.0669434	261.573	33.44
0.067041	262.843	33.5
0.0671387	263.824	33.56
0.0672852	264.978	33.62
0.0673828	266.024	33.68
0.0674805	267.142	33.74
0.067627	268.34	33.8
0.0677246	269.155	33.86
0.0678223	270.521	33.92
0.0679688	271.206	33.98
0.0680664	272.363	34.04
0.0681641	273.634	34.1
0.0682617	274.466	34.16
0.0684082	275.66	34.22
0.0685059	276.891	34.28
0.0686523	277.96	34.34
0.06875	279.133	34.4
0.0688477	280.25	34.46
0.0689941	281.44	34.52
0.0690918	282.648	34.58
0.0692383	283.917	34.64
0.0693359	285.292	34.7
0.0694824	286.375	34.76
0.0696289	287.948	34.82
0.0697266	288.973	34.88
0.069873	290.235	34.94
0.0699707	291.617	35
0.0701172	292.864	35.06
0.0702637	294.335	35.12
0.0703613	295.381	35.18
0.0705078	296.792	35.24
0.0706543	298.092	35.3
0.070752	299.292	35.36
0.0708984	300.655	35.42
0.0709961	301.799	35.48
0.0711426	303.228	35.54
0.0712402	304.457	35.6
0.0713867	305.578	35.66
0.0714844	306.908	35.72
0.0716309	307.74	35.78
0.0717285	309.292	35.84
0.071875	310.231	35.9
0.0719727	311.476	35.96
0.0721191	312.644	36.02
0.0722168	313.934	36.08
0.0723145	315.171	36.14
0.0724609	316.097	36.2
0.0725586	317.537	36.26
0.0727051	318.474	36.32
0.0728027	319.645	36.38
0.0729004	321.008	36.44
0.0730469	321.879	36.5
0.0731445	323.232	36.56
0.0732422	324.242	36.62
0.0733887	325.121	36.68
0.0734863	326.685	36.74
0.073584	327.708	36.8
0.0737305	328.931	36.86
0.0738281	330.226	36.92
0.0739746	331.34	36.98
0.0740723	332.278	37.04
0.0741699	333.341	37.1
0.0742676	334.71	37.16
0.0744141	335.61	37.22
0.0745117	336.838	37.28
0.0746094	337.95	37.34
0.074707	338.874	37.4
0.0748535	340.057	37.46
0.0749512	341.029	37.52
0.0750488	342.322	37.58
0.0751953	343.354	37.64
0.075293	344.417	37.7
0.0753906	345.902	37.76
0.0755371	335.177	37.82
0.0756348	315.273	37.88
0.0757813	311.815	37.94
0.0758789	310.558	38
0.0760254	310.434	38.06
0.076123	310.694	38.12
0.0762695	311.195	38.18
0.0763672	311.95	38.24
0.0765137	312.772	38.3
0.0766113	313.84	38.36
0.0767578	314.527	38.42
0.0769043	315.736	38.48
0.077002	316.958	38.54
0.0771484	318.314	38.6
0.0772949	319.5	38.66
0.0773926	320.748	38.72
0.0775391	321.944	38.78
0.0776367	322.955	38.84
0.0777832	324.382	38.9
0.0779297	325.581	38.96
0.0780273	326.77	39.02
0.0781738	328.03	39.08
0.0782715	329.151	39.14
0.078418	330.332	39.2
0.0785645	331.672	39.26
0.0786621	332.608	39.32
0.0788086	334.163	39.38
0.0789062	335.048	39.44
0.0790039	336.25	39.5
0.0791504	337.316	39.56
0.079248	338.55	39.62
0.0793945	339.759	39.68
0.0794922	340.594	39.74
0.0795898	341.95	39.8
0.0797363	342.94	39.86
0.079834	344.11	39.92
0.0799805	345.363	39.98
0.0800781	346.444	40.04
0.0802246	347.756	40.1
0.0803223	348.746	40.16
0.0804199	349.503	40.22
0.0805176	350.663	40.28
0.0806641	351.647	40.34
0.0807617	352.759	40.4
0.0808594	353.789	40.46
0.0810059	354.771	40.52
0.0811035	356.004	40.58
0.0812012	356.838	40.64
0.0813477	357.946	40.7
0.0814453	359.053	40.76
0.081543	360.032	40.82
0.0816895	360.291	40.88
0.0817871	359.116	40.94
0.0818848	359.427	41
0.0820312	359.297	41.06
0.0821289	359.32	41.12
0.0822266	359.241	41.18
0.082373	359.291	41.24
0.0825195	359.575	41.3
0.0826172	359.659	41.36
0.0827637	359.81	41.42
0.0828613	360.288	41.48
0.0830078	360.826	41.54
0.0831543	361.542	41.6
0.083252	362.064	41.66
0.0833984	362.777	41.72
0.0835449	363.72	41.78
0.0836426	364.519	41.84
0.0837891	365.476	41.9
0.0839355	366.149	41.96
0.0840332	367.04	42.02
0.0841797	367.86	42.08
0.0843262	368.687	42.14
0.0844238	369.529	42.2
0.0845703	369.843	42.26
0.0847168	370.891	42.32
0.0848145	371.24	42.38
0.0849609	371.579	42.44
0.0850586	371.867	42.5
0.0851563	372.582	42.56
0.0853027	373.336	42.62
0.0854492	374.234	42.68
0.0855469	374.722	42.74
0.0856445	375.758	42.8
0.085791	376.286	42.86
0.0858887	377.458	42.92
0.0860352	377.956	42.98
0.0861328	379.01	43.04
0.0862305	379.576	43.1
0.086377	380.413	43.16
0.0864746	381.193	43.22
0.0866211	381.913	43.28
0.0867187	382.88	43.34
0.0868652	383.43	43.4
0.0869629	384.163	43.46
0.0870605	385.155	43.52
0.0871582	385.527	43.58
0.0873047	386.063	43.64
0.0874023	386.693	43.7
0.0875	387.501	43.76
0.0876465	388.036	43.82
0.0877441	388.567	43.88
0.0878418	389.608	43.94
0.0879883	389.979	44
0.0880859	390.481	44.06
0.0881836	390.682	44.12
0.0882813	391.033	44.18
0.0884277	391.426	44.24
0.0885254	392.02	44.3
0.0886719	392.366	44.36
0.0887695	392.938	44.42
0.0888672	393.347	44.48
0.0890137	393.969	44.54
0.0891602	394.29	44.6
0.0892578	394.443	44.66
0.0893555	395.013	44.72
0.089502	395.407	44.78
0.0896484	395.888	44.84
0.0897461	395.769	44.9
0.0898926	396.103	44.96
0.0899902	396.043	45.02
0.0901367	396.375	45.08
0.0902832	396.531	45.14
0.0904297	396.666	45.2
0.0905273	396.663	45.26
0.090625	396.893	45.32
0.0907715	397.085	45.38
0.090918	397.524	45.44
0.0910156	397.516	45.5
0.0911621	397.366	45.56
0.0913086	397.424	45.62
0.0914062	397.155	45.68
0.0915039	397.041	45.74
0.0916504	396.951	45.8
0.0917969	396.854	45.86
0.0918945	396.391	45.92
0.092041	396.704	45.98
0.0921387	396.393	46.04
0.0922852	396.2	46.1
0.0923828	396.109	46.16
0.0924805	395.82	46.22
0.092627	395.697	46.28
0.0927246	395.616	46.34
0.0928711	395.47	46.4
0.0929688	395.367	46.46
0.0930664	395.336	46.52
0.0932129	395.423	46.58
0.0933105	395.266	46.64
0.0934082	395.238	46.7
0.0935547	395.396	46.76
0.0936523	395.195	46.82
0.0937988	395.207	46.88
0.0938965	395.127	46.94
0.0939941	394.913	47
0.0940918	394.881	47.06
0.0942383	394.493	47.12
0.0943359	394.151	47.18
0.0944336	393.399	47.24
0.0945801	392.669	47.3
0.0946777	392.064	47.36
0.0947754	391.154	47.42
0.094873	389.896	47.48
0.0950195	388.826	47.54
0.0951172	387.479	47.6
0.0952637	386.424	47.66
0.0953613	384.889	47.72
0.095459	383.851	47.78
0.0956055	383.084	47.84
0.0957031	382.147	47.9
0.0958008	381.066	47.96
0.0959473	379.837	48.02
0.0960937	378.631	48.08
0.0962402	376.824	48.14
0.0963379	374.977	48.2
0.0964844	373.435	48.26
0.096582	371.704	48.32
0.0967285	369.775	48.38
0.096875	365.937	48.44
0.0969727	360.114	48.5
0.0971191	352.419	48.56
0.0972656	344.886	48.62
0.0973633	338.205	48.68
0.0975098	331.739	48.74
0.0976074	327.218	48.8
0.0977539	322.87	48.86
0.0979004	317.742	48.92
0.097998	310.23	48.98
0.0981445	301.453	49.04
0.098291	293.995	49.1
0.0983887	284.596	49.16
0.0985352	277.036	49.22
0.0986816	269.785	49.28
0.0987793	263.31	49.34
0.098877	256.173	49.4
0.0989746	249.616	49.46
0.0991211	244.283	49.52
0.0992187	239.735	49.58
0.0993652	234.01	49.64
0.0994629	229.534	49.7
0.0996094	225.645	49.76
0.0997559	222.459	49.82
0.0998535	219.547	49.88
0.0999512	216.512	49.94
0.100049	213.983	50
0.100195	205.528	50.06
0.100293	190.214	50.12
0.100439	178.537	50.18
0.100537	172.246	50.24
0.100635	169.431	50.3
0.100781	167.298	50.36
0.100879	166.143	50.42
0.100977	164.929	50.48
0.101123	164.121	50.54
0.101221	163.295	50.6
0.101318	162.463	50.66
0.101416	162.298	50.72
0.101514	161.606	50.78
0.10166	161.229	50.84
0.101758	160.897	50.9
0.101855	160.421	50.96
0.102002	160.21	51.02
0.1021	159.716	51.08
0.102246	159.441	51.14
0.102344	159.07	51.2
0.10249	158.749	51.26
0.102588	158.585	51.32
0.102686	158.045	51.38
0.102832	158.036	51.44
0.102979	157.78	51.5
0.103076	157.603	51.56
0.103223	157.257	51.62
0.103369	156.974	51.68
0.103467	156.905	51.74
0.103613	156.675	51.8
0.10376	156.547	51.86
0.103857	156.573	51.92
0.104004	156.324	51.98
0.10415	156.448	52.04
0.104248	156.304	52.1
0.104395	156.412	52.16
0.104492	156.229	52.22
0.104639	156.073	52.28
0.104736	156.242	52.34
0.104883	156.009	52.4
0.10498	156.284	52.46
0.105127	155.826	52.52
0.105225	155.731	52.58
0.105371	155.658	52.64
0.105469	155.333	52.7
0.105615	155.4	52.76
0.105713	155.209	52.82
0.105811	155.177	52.88
0.105957	155.162	52.94
0.106055	154.987	53
0.106201	155.085	53.06
0.106299	154.853	53.12
0.106396	154.841	53.18
0.106543	154.787	53.24
0.106641	154.719	53.3
0.106787	154.796	53.36
0.106885	154.666	53.42
0.106982	154.697	53.48
0.10708	154.697	53.54
0.107227	154.481	53.6
0.107324	154.556	53.66
0.107422	154.34	53.72
0.107568	154.292	53.78
0.107666	154.27	53.84
0.107764	154.19	53.9
0.107861	154.121	53.96
0.108008	153.765	54.02
0.108105	153.79	54.08
0.108203	153.59	54.14
0.10835	153.284	54.2
0.108447	153.27	54.26
0.108545	153.15	54.32
0.108691	153.181	54.38
0.108789	152.97	54.44
0.108887	152.836	54.5
0.109033	152.842	54.56
0.109131	152.69	54.62
0.109277	152.571	54.68
0.109375	152.48	54.74
0.109521	152.389	54.8
0.109619	152.316	54.86
0.109766	151.955	54.92
0.109912	151.979	54.98
0.11001	151.624	55.04
0.110156	151.432	55.1
0.110254	151.325	55.16
0.1104	150.989	55.22
0.110547	150.932	55.28
0.110645	150.446	55.34
0.110791	150.333	55.4
0.110938	150.068	55.46
0.111035	149.953	55.52
0.111182	149.8	55.58
0.111279	149.618	55.64
0.111426	149.506	55.7
0.111523	149.206	55.76
0.11167	148.76	55.82
0.111768	148.517	55.88
0.111914	147.897	55.94
0.112012	147.462	56
0.112158	146.793	56.06
0.112256	146.391	56.12
0.112354	145.91	56.18
0.1125	145.018	56.24
0.112598	144.096	56.3
0.112744	141.129	56.36
0.112842	138.464	56.42
0.112988	136.066	56.48
0.113086	133.98	56.54
0.113184	132.218	56.6
0.11333	130.18	56.66
0.113428	128.078	56.72
0.113525	126.686	56.78
0.113672	125.469	56.84
0.11377	124.751	56.9
0.113867	123.8	56.96
0.114014	122.986	57.02
0.114111	122.266	57.08
0.114209	121.612	57.14
0.114307	120.963	57.2
0.114453	120.273	57.26
0.114551	119.989	57.32
0.114648	119.457	57.38
0.114795	118.93	57.44
0.114893	118.613	57.5
0.11499	118.017	57.56
0.115088	117.814	57.62
0.115234	117.407	57.68
0.115332	117.084	57.74
0.115479	116.748	57.8
0.115576	116.207	57.86
0.115723	115.956	57.92
0.11582	115.548	57.98
0.115967	115.214	58.04
0.116064	114.919	58.1
0.116211	114.448	58.16
0.116309	114.465	58.22
0.116455	113.944	58.28
0.116602	113.548	58.34
0.116699	113.213	58.4
0.116846	112.951	58.46
0.116992	112.68	58.52
0.117139	112.216	58.58
0.117285	112.023	58.64
0.117383	111.572	58.7
0.117529	111.181	58.76
0.117627	110.991	58.82
0.117773	110.558	58.88
0.117871	110.35	58.94
0.118018	109.971	59
0.118164	109.581	59.06
0.118262	109.539	59.12
0.118408	108.994	59.18
0.118555	108.82	59.24
0.118652	108.475	59.3
0.11875	108.052	59.36
0.118896	107.748	59.42
0.118994	107.277	59.48
0.119141	107.27	59.54
0.119287	106.777	59.6
0.119385	106.511	59.66
0.119482	106.095	59.72
0.11958	105.696	59.78
0.119727	105.694	59.84
0.119824	105.203	59.9
0.119922	105.091	59.96
0.120068	104.81	60.02
0.120166	104.443	60.08
0.120312	104.368	60.14
0.12041	104.002	60.2
0.120557	103.82	60.26
0.120654	103.527	60.32
0.120752	103.143	60.38
0.12085	102.982	60.44
0.120996	102.588	60.5
0.121094	102.518	60.56
0.121191	102.069	60.62
0.121338	101.663	60.68
0.121436	101.576	60.74
0.121533	101.15	60.8
0.121631	101.116	60.86
0.121777	100.769	60.92
0.121875	100.508	60.98
0.122021	100.263	61.04
0.122119	100.003	61.1
0.122266	99.8798	61.16
0.122363	99.3939	61.22
0.12251	99.1922	61.28
0.122607	98.8958	61.34
0.122754	98.4752	61.4
0.122852	98.362	61.46
0.122998	97.8836	61.52
0.123096	97.573	61.58
0.123242	97.3435	61.64
0.123389	97.0331	61.7
0.123535	96.8693	61.76
0.123633	95.8543	61.82
0.123779	90.6034	61.88
0.123926	88.9448	61.94
0.124023	87.7058	62
0.12417	86.6554	62.06
0.124316	85.633	62.12
0.124414	84.9268	62.18
0.124512	83.9551	62.24
0.124658	83.2351	62.3
0.124805	82.5883	62.36
0.124902	81.7378	62.42
0.125049	81.3344	62.48
0.125146	80.7365	62.54
0.125244	80.1746	62.6
0.125391	79.6239	62.66
0.125488	78.8769	62.72
0.125635	78.5937	62.78
0.125732	78.0053	62.84
0.125879	77.6465	62.9
0.125977	77.2637	62.96
0.126123	76.7699	63.02
0.126221	76.4146	63.08
0.126367	75.6023	63.14
0.126465	75.122	63.2
0.126563	74.714	63.26
0.126709	74.135	63.32
0.126807	73.8996	63.38
0.126904	73.3115	63.44
0.127051	72.9877	63.5
0.127148	72.4848	63.56
0.127246	72.1032	63.62
0.127393	71.6904	63.68
0.12749	71.1883	63.74
0.127588	70.9877	63.8
0.127734	70.5309	63.86
0.127832	70.1402	63.92
0.12793	69.8835	63.98
0.128027	69.465	64.04
0.128174	69.2931	64.1
0.128271	68.8661	64.16
0.128369	68.6098	64.22
0.128516	68.3992	64.28
0.128613	68.0011	64.34
0.128711	67.8872	64.4
0.128857	67.3926	64.46
0.128955	67.2123	64.52
0.129102	67.0137	64.58
0.129199	66.6673	64.64
0.129346	66.5718	64.7
0.129443	66.2632	64.76
0.12959	66.1034	64.82
0.129736	65.8579	64.88
0.129834	65.5383	64.94
0.12998	65.4066	65
0.130078	65.0901	65.06
0.130225	64.5073	65.12
0.130371	63.9319	65.18
0.130469	63.4379	65.24
0.130615	62.9535	65.3
0.130762	62.3131	65.36
0.130859	61.9752	65.42
0.131006	61.5521	65.48
0.131152	61.1671	65.54
0.13125	60.8619	65.6
0.131396	60.4481	65.66
0.131494	60.3386	65.72
0.131641	59.9622	65.78
0.131787	59.677	65.84
0.131885	59.2857	65.9
0.131982	58.7672	65.96
0.132129	58.7178	66.02
0.132227	58.253	66.08
0.132324	58.0027	66.14
0.132471	57.7559	66.2
0.132617	57.439	66.26
0.132715	57.3796	66.32
0.132813	56.9572	66.38
0.132959	56.8386	66.44
0.133057	56.5819	66.5
0.133203	56.2968	66.56
0.133301	56.1138	66.62
0.133398	55.7405	66.68
0.133545	55.5868	66.74
0.133643	55.34	66.8
0.13374	55.1987	66.86
0.133887	54.8958	66.92
0.133984	54.5371	66.98
0.134082	54.4574	67.04
0.134229	54.1368	67.1
0.134326	53.8421	67.16
0.134424	53.8239	67.22
0.134521	53.4758	67.28
0.134668	53.4918	67.34
0.134766	53.2471	67.4
0.134863	53.025	67.46
0.13501	52.9315	67.52
0.135107	52.6234	67.58
0.135205	52.5789	67.64
0.135352	52.3429	67.7
0.135449	52.2759	67.76
0.135547	52.1532	67.82
0.135693	51.9371	67.88
0.135791	51.9009	67.94
0.135938	51.567	68
0.136035	51.5205	68.06
0.136182	51.3037	68.12
0.136279	51.1978	68.18
0.136426	51.1698	68.24
0.136572	50.6648	68.3
0.13667	50.4291	68.36
0.136816	50.0455	68.42
0.136963	49.8679	68.48
0.137109	49.6936	68.54
0.137207	49.44	68.6
0.137354	49.3734	68.66
0.1375	49.0904	68.72
0.137598	48.9315	68.78
0.137744	48.8271	68.84
0.137842	48.5143	68.9
0.137988	48.4746	68.96
0.138086	48.1464	69.02
0.138232	48.052	69.08
0.13833	47.9623	69.14
0.138477	47.6058	69.2
0.138574	47.6344	69.26
0.138721	47.389	69.32
0.138818	47.2324	69.38
0.138916	47.0477	69.44
0.139062	46.7935	69.5
0.139209	46.8329	69.56
0.139307	46.5195	69.62
0.139453	46.4141	69.68
0.139551	46.2933	69.74
0.139648	46.0939	69.8
0.139795	45.9952	69.86
0.139893	45.7064	69.92
0.140039	45.7425	69.98
0.140137	45.5755	70.04
0.140234	45.5036	70.1
0.140381	45.3955	70.16
0.140479	45.1127	70.22
0.140576	45.1798	70.28
0.140723	45.1071	70.34
0.14082	45.0173	70.4
0.140918	45.0272	70.46
0.141064	44.7768	70.52
0.141162	44.8077	70.58
0.14126	44.6535	70.64
0.141357	44.5246	70.7
0.141455	44.4948	70.76
0.141602	44.3533	70.82
0.141699	44.5541	70.88
0.141846	44.2687	70.94
0.141943	44.2784	71
0.142041	44.2534	71.06
0.142188	44.0641	71.12
0.142285	44.1446	71.18
0.142383	43.9022	71.24
0.142529	44.0105	71.3
0.142627	43.9366	71.36
0.142773	43.7863	71.42
0.142871	43.8665	71.48
0.143018	43.6228	71.54
0.143115	43.699	71.6
0.143262	43.6561	71.66
0.143408	43.5852	71.72
0.143506	43.6063	71.78
0.143652	43.4312	71.84
0.143799	43.5031	71.9
0.143896	43.3694	71.96
0.144043	43.253	72.02
0.144189	43.4111	72.08
0.144287	43.1259	72.14
0.144434	43.2389	72.2
0.144531	43.1192	72.26
0.144678	43.0006	72.32
0.144775	43.0584	72.38
0.144922	42.9668	72.44
0.14502	43.0561	72.5
0.145166	42.841	72.56
0.145264	42.8732	72.62
0.145361	42.8084	72.68
0.145508	42.7392	72.74
0.145654	42.7364	72.8
0.145752	42.5625	72.86
0.145898	42.6001	72.92
0.145996	42.5397	72.98
0.146094	42.493	73.04
0.14624	42.4914	73.1
0.146338	42.2428	73.16
0.146436	42.3646	73.22
0.146582	42.1891	73.28
0.14668	42.1603	73.34
0.146777	42.2443	73.4
0.146924	42.0644	73.46
0.147021	42.3869	73.52
0.147119	42.0025	73.58
0.147266	41.9592	73.64
0.147363	41.9308	73.7
0.147461	41.7639	73.76
0.147559	41.9348	73.82
0.147705	41.782	73.88
0.147803	41.7649	73.94
0.1479	41.7941	74
0.148047	41.5177	74.06
0.148145	41.7189	74.12
0.148242	41.5863	74.18
0.14834	41.4733	74.24
0.148486	41.5822	74.3
0.148584	41.4937	74.36
0.14873	41.5322	74.42
0.148828	41.3236	74.48
0.148975	41.3818	74.54
0.149072	41.3064	74.6
0.149219	41.2297	74.66
0.149316	41.3454	74.72
0.149463	41.1356	74.78
0.149561	41.2458	74.84
0.149707	41.1844	74.9
0.149854	41.0898	74.96
0.149951	41.1895	75.02
0.150098	40.9521	75.08
0.150244	41.0376	75.14
0.150391	40.976	75.2
0.150488	40.9907	75.26
0.150635	40.9119	75.32
0.150732	40.7714	75.38
0.15083	40.9563	75.44
0.150977	40.6932	75.5
0.151123	40.7328	75.56
0.15127	40.7744	75.62
0.151367	40.6133	75.68
0.151514	40.739	75.74
0.151611	40.5585	75.8
0.151758	40.547	75.86
0.151855	40.4966	75.92
0.151953	40.4179	75.98
0.1521	40.5428	76.04
0.152246	40.4036	76.1
0.152344	40.4007	76.16
0.15249	40.4294	76.22
0.152588	40.3302	76.28
0.152734	40.2819	76.34
0.152832	40.1172	76.4
0.15293	40.2248	76.46
0.153076	40.0453	76.52
0.153174	40.072	76.58
0.153271	40.1015	76.64
0.153418	39.8621	76.7
0.153516	39.9187	76.76
0.153564	39.8653	76.779