File: Data/Thesis_Samples_Data/Flexural_Layered_1/Flexural_Layered_1.csv
"File Path: C:\Users\Lab User\Desktop\Will\Thesis Tests\Test Run 1 04-8-22 13 59 50 PM\DAQ- Crosshead, … - (Timed).txt   ",,
Test: MTS EM Flexure (3-Point Bend) - Will 1,,
Test Run: Test Run 1,,
Date: 4/8/2022 1:34:20 PM,,
,,
,,
Crosshead ,Load ,Time
mm,N,sec
4.88E-05,1.14365,0.146
0.001953125,1.53666,1.146
0.004248047,2.04311,2.146
0.006298828,2.56662,3.146
0.008203125,3.00094,4.146
0.0102051,3.31785,5.146
0.0123047,3.74769,6.146
0.0142578,3.74649,7.146
0.0162109,3.25465,8.146
0.0183594,3.59263,9.146
0.0203125,3.04376,10.146
0.022168,3.23301,11.146
0.0242676,3.58275,12.146
0.0262695,3.37122,13.146
0.0281738,3.91289,14.146
0.0301758,4.28739,15.146
0.0322754,4.70808,16.146
0.0342773,5.21659,17.146
0.0361816,5.22201,18.146
0.03828125,5.66362,19.146
0.0402832,6.03041,20.146
0.0421387,6.33602,21.146
0.04428711,6.75704,22.146
0.0463379,7.21301,23.146
0.0482422,7.45769,24.146
0.050293,7.84854,25.146
0.0523437,8.12904,26.146
0.054248,8.47777,27.146
0.0561523,8.86709,28.146
0.058252,9.30719,29.146
0.0602539,9.63416,30.146
0.0621094,10.008,31.146
0.0642578,10.4043,32.146
0.0663086,10.6513,33.146
0.0682129,10.9363,34.146
0.0702148,11.3022,35.146
0.0723145,11.6486,36.146
0.0742187,11.9444,37.146
0.0761719,12.2353,38.146
0.0782715,12.5845,39.146
0.0802734,12.8763,40.146
0.0821777,13.2691,41.146
0.0842773,13.5348,42.146
0.0863281,13.8073,43.146
0.0881836,14.1938,44.146
0.0901855,14.5022,45.146
0.0922852,14.4155,46.146
0.0942383,14.8097,47.146
0.0961426,15.1653,48.146
0.098291,15.6569,49.146
0.100293,14.4123,50.146
0.102148,12.4804,51.146
0.104248,13.0885,52.146
0.106299,13.7103,53.146
0.108203,14.1578,54.146
0.110205,13.9587,55.146
0.112305,14.4967,56.146
0.114258,12.7772,57.146
0.116211,12.6235,58.146
0.118311,13.0984,59.146
0.120264,13.3879,60.146
0.122119,13.7387,61.146
0.124219,14.1139,62.146
0.12627,14.6252,63.146
0.128174,15.062,64.146
0.130225,15.6667,65.146
0.132324,16.2598,66.146
0.134229,16.8496,67.146
0.136182,17.4541,68.146
0.13833,17.9535,69.146
0.140283,18.3431,70.146
0.142188,18.8564,71.146
0.144287,19.3968,72.146
0.146338,19.804,73.146
0.148242,20.2428,74.146
0.150244,20.7856,75.146
0.152295,21.366,76.146
0.154248,21.8443,77.146
0.156152,22.4387,78.146
0.158252,22.9898,79.146
0.160254,23.4547,80.146
0.162109,23.9093,81.146
0.164209,24.5177,82.146
0.1663086,24.965,83.146
0.168213,25.4735,84.146
0.170264,26.093,85.146
0.172314,26.6724,86.146
0.174268,27.1708,87.146
0.176172,27.7512,88.146
0.17832,28.4318,89.146
0.180273,29.0475,90.146
0.182178,29.5729,91.146
0.184277,30.0837,92.146
0.186328,30.6065,93.146
0.188232,31.0407,94.146
0.190186,31.5889,95.146
0.192285,32.1059,96.146
0.194189,32.6122,97.146
0.196143,33.1334,98.146
0.198291,33.8105,99.146
0.200293,34.3681,100.146
0.202148,34.8452,101.146
0.204297,35.4613,102.146
0.206299,35.9524,103.146
0.208203,36.497,104.146
0.2102539,36.9579,105.146
0.212305,37.4715,106.146
0.214258,38.0081,107.146
0.216211,38.5512,108.146
0.218311,39.0606,109.146
0.220313,39.5727,110.146
0.222168,40.0895,111.146
0.224219,40.5854,112.146
0.22627,41.2423,113.146
0.228174,41.5451,114.146
0.230176,41.9854,115.146
0.232275,42.5488,116.146
0.234277,43.0297,117.146
0.236182,43.4415,118.146
0.238281,43.9913,119.146
0.240283,44.514,120.146
0.242139,45.0869,121.146
0.244238,45.6211,122.146
0.246338,46.1553,123.146
0.248242,46.6379,124.146
0.250244,47.0544,125.146
0.252344,47.5013,126.146
0.254248,39.5841,127.146
0.256152,39.5653,128.146
0.258252,39.9638,129.146
0.260254,40.3352,130.146
0.262109,40.8665,131.146
0.264258,41.2963,132.146
0.266309,41.4763,133.146
0.268213,41.37,134.146
0.270215,41.6503,135.146
0.272314,42.0055,136.146
0.274219,42.2986,137.146
0.276172,42.6238,138.146
0.27832,43.0266,139.146
0.280273,43.3678,140.146
0.282178,43.4745,141.146
0.284277,43.8702,142.146
0.286328,44.2328,143.146
0.288232,44.4834,144.146
0.290186,44.7949,145.146
0.292285,45.1023,146.146
0.294238,45.3273,147.146
0.296143,45.6802,148.146
0.298291,45.9384,149.146
0.300293,46.3711,150.146
0.302197,46.6562,151.146
0.304248,47.0892,152.146
0.306299,46.6943,153.146
0.308203,46.9347,154.146
0.310205,47.2051,155.146
0.312305,47.5101,156.146
0.314258,47.7808,157.146
0.316211,48.0621,158.146
0.318311,48.2484,159.146
0.320264,48.6499,160.146
0.322168,48.9349,161.146
0.324219,49.2483,162.146
0.32627,49.3866,163.146
0.328174,47.5675,164.146
0.330225,47.4174,165.146
0.332324,47.527,166.146
0.334277,47.6286,167.146
0.336182,47.8953,168.146
0.33833,48.0509,169.146
0.340283,48.2435,170.146
0.342188,48.4305,171.146
0.344287,48.6928,172.146
0.346338,48.9388,173.146
0.348242,49.1642,174.146
0.350244,49.3627,175.146
0.352295,49.4873,176.146
0.354248,49.512,177.146
0.356152,38.5192,178.146
0.358252,38.7944,179.146
0.360254,39.0163,180.146
0.362109,39.285,181.146
0.364258,39.4943,182.146
0.366309,39.5062,183.146
0.368213,39.6186,184.146
0.370264,39.9566,185.146
0.372314,40.1502,186.146
0.374268,40.2735,187.146
0.376172,35.1122,188.146
0.37832,35.3363,189.146
0.380273,35.4176,190.146
0.382178,35.5629,191.146
0.384277,35.9032,192.146
0.386328,36.0831,193.146
0.388232,36.3316,194.146
0.390186,36.5548,195.146
0.392285,36.7466,196.146
0.394189,36.915,197.146
0.396143,36.9717,198.146
0.398242,37.1797,199.146
0.400244,37.2434,200.146
0.402148,37.3578,201.146
0.404248,37.4938,202.146
0.406299,37.7205,203.146
0.408203,37.8102,204.146
0.410205,38.0587,205.146
0.412305,38.1784,206.146
0.414258,38.3835,207.146
0.416211,38.3877,208.146
0.418311,38.458,209.146
0.420313,38.5127,210.146
0.422168,38.6404,211.146
0.424219,38.6511,212.146
0.42627,38.7395,213.146
0.428174,38.7099,214.146
0.430176,38.8323,215.146
0.432275,38.9308,216.146
0.434277,33.4404,217.146
0.436182,33.3729,218.146
0.438281,33.3666,219.146
0.440283,33.4014,220.146
0.442139,33.4392,221.146
0.444238,31.8843,222.146
0.446338,31.9968,223.146
0.448242,32.1337,224.146
0.450293,32.1858,225.146
0.452344,30.6103,226.146
0.454248,30.574,227.146
0.456152,30.5751,228.146
0.458252,30.6131,229.146
0.460254,30.7666,230.146
0.462109,30.8498,231.146
0.464258,30.9851,232.146
0.466309,31.0504,233.146
0.468213,31.1325,234.146
0.470215,31.234,235.146
0.472314,31.1806,236.146
0.474219,31.1252,237.146
0.476172,31.1599,238.146
0.478271,31.2284,239.146
0.480273,31.3043,240.146
0.482178,31.4173,241.146
0.484277,31.5204,242.146
0.486328,31.508,243.146
0.488184,25.9011,244.146
0.490186,25.9212,245.146
0.492285,25.9784,246.146
0.494238,26.0664,247.146
0.496143,26.2211,248.146
0.498291,26.4285,249.146
0.500293,26.5139,250.146
0.502197,26.5833,251.146
0.504248,26.6399,252.146
0.506299,26.6634,253.146
0.508203,26.6594,254.146
0.510254,26.7864,255.146
0.512353,26.9785,256.146
0.514258,27.1143,257.146
0.516211,27.2737,258.146
0.518311,27.3792,259.146
0.520264,27.3495,260.146
0.522168,27.385,261.146
0.524219,27.5231,262.146
0.52627,27.5171,263.146
0.528174,27.5593,264.146
0.530225,27.7498,265.146
0.532324,27.9191,266.146
0.534229,27.9272,267.146
0.536182,27.9761,268.146
0.53833,28.0161,269.146
0.540283,28.0954,270.146
0.542187,28.1602,271.146
0.544287,28.2301,272.146
0.546338,28.3345,273.146
0.548242,28.416,274.146
0.550244,28.4711,275.146
0.552295,28.5992,276.146
0.554248,28.6363,277.146
0.556152,28.5174,278.146
0.558252,28.6418,279.146
0.560254,28.6062,280.146
0.562109,28.6332,281.146
0.564258,28.7179,282.146
0.566309,28.8115,283.146
0.568213,28.8587,284.146
0.570264,28.9101,285.146
0.572314,28.9228,286.146
0.574268,28.9884,287.146
0.576172,28.9913,288.146
0.57832,29.06,289.146
0.580273,29.0812,290.146
0.582178,29.1739,291.146
0.584277,29.2055,292.146
0.586328,29.0847,293.146
0.588232,29.3305,294.146
0.590186,29.279,295.146
0.592285,29.4142,296.146
0.594189,29.5504,297.146
0.596143,29.4618,298.146
0.598291,29.5744,299.146
0.600244,29.551,300.146
0.602148,29.6759,301.146
0.604248,29.5969,302.146
0.606299,29.6639,303.146
0.608203,29.6729,304.146
0.610254,29.7718,305.146
0.612305,29.9118,306.146
0.614258,29.9521,307.146
0.616211,29.9979,308.146
0.618311,30.0848,309.146
0.620313,30.1384,310.146
0.622168,30.1632,311.146
0.624219,28.6448,312.146
0.62627,28.6639,313.146
0.628174,28.7327,314.146
0.630176,28.8266,315.146
0.632275,28.8598,316.146
0.634277,28.9557,317.146
0.636182,28.9651,318.146
0.638281,29.0335,319.146
0.640283,28.6043,320.146
0.642139,28.4452,321.146
0.644238,28.574,322.146
0.646338,28.5434,323.146
0.648242,28.6331,324.146
0.650293,28.6325,325.146
0.652344,28.5732,326.146
0.654248,28.6174,327.146
0.656152,28.6121,328.146
0.658252,28.6561,329.146
0.660254,28.8753,330.146
0.662109,28.8625,331.146
0.664258,28.9884,332.146
0.666309,28.9819,333.146
0.668213,29.0472,334.146
0.670264,29.0892,335.146
0.672314,29.0971,336.146
0.674268,29.1363,337.146
0.676172,28.8251,338.146
0.678271,28.8388,339.146
0.680322,28.9158,340.146
0.682178,28.9725,341.146
0.684326,29.1085,342.146
0.686328,29.147,343.146
0.688232,29.3008,344.146
0.690186,29.3326,345.146
0.692285,29.5289,346.146
0.694238,29.6051,347.146
0.696143,29.4999,348.146
0.698291,29.5596,349.146
0.700293,29.611,350.146
0.702148,29.5902,351.146
0.704297,29.6345,352.146
0.706299,29.7427,353.146
0.708203,29.8312,354.146
0.710205,29.9418,355.146
0.712305,30.0443,356.146
0.714258,30.0194,357.146
0.716211,30.1257,358.146
0.718311,30.2437,359.146
0.720264,30.2878,360.146
0.722119,30.3403,361.146
0.724219,30.2826,362.146
0.72627,30.3511,363.146
0.728174,30.3844,364.146
0.730225,30.363,365.146
0.732275,30.4765,366.146
0.734229,30.5286,367.146
0.736182,30.6178,368.146
0.738281,30.6549,369.146
0.740283,30.6989,370.146
0.742139,30.8246,371.146
0.744287,30.8304,372.146
0.746338,30.835,373.146
0.748242,30.7956,374.146
0.750244,22.5952,375.146
0.752344,22.6415,376.146
0.754248,22.6008,377.146
0.756152,22.6953,378.146
0.758252,22.7064,379.146
0.760254,22.7541,380.146
0.762109,22.8446,381.146
0.764258,22.9771,382.146
0.766309,23.0016,383.146
0.768213,23.1749,384.146
0.770264,23.2157,385.146
0.772314,23.2444,386.146
0.774268,23.2318,387.146
0.776172,23.3439,388.146
0.77832,23.3302,389.146
0.780273,23.2848,390.146
0.782178,23.3551,391.146
0.784277,23.4066,392.146
0.786328,23.5886,393.146
0.788232,23.6341,394.146
0.790186,23.6664,395.146
0.792285,23.7471,396.146
0.794189,23.8199,397.146
0.796143,23.8149,398.146
0.798242,23.8823,399.146
0.800244,23.9243,400.146
0.802148,23.9502,401.146
0.804248,23.9837,402.146
0.806299,23.9947,403.146
0.808203,24.0931,404.146
0.810205,24.2177,405.146
0.812305,24.3271,406.146
0.814258,24.3075,407.146
0.816211,24.4304,408.146
0.818311,24.5601,409.146
0.820312,24.6706,410.146
0.822168,24.6059,411.146
0.824219,24.6124,412.146
0.82627,24.6517,413.146
0.828174,24.7212,414.146
0.830176,24.7759,415.146
0.832324,24.8233,416.146
0.834277,24.8009,417.146
0.836182,24.9129,418.146
0.838281,25.1343,419.146
0.840283,25.1567,420.146
0.842139,25.2789,421.146
0.844238,25.4371,422.146
0.846338,25.4896,423.146
0.848242,25.569,424.146
0.850293,25.5424,425.146
0.852344,25.6129,426.146
0.854248,25.6115,427.146
0.856152,25.6843,428.146
0.858252,25.6284,429.146
0.860254,25.6771,430.146
0.862109,25.781,431.146
0.864258,25.8985,432.146
0.866309,26.0012,433.146
0.868213,26.1155,434.146
0.870264,26.1931,435.146
0.872314,26.2145,436.146
0.874219,26.3452,437.146
0.876172,26.3994,438.146
0.878271,26.4694,439.146
0.880322,26.4775,440.146
0.882178,26.4885,441.146
0.884277,26.5,442.146
0.886328,26.624,443.146
0.888184,26.7045,444.146
0.890186,26.7535,445.146
0.892285,26.4674,446.146
0.894238,26.5297,447.146
0.896143,26.6937,448.146
0.898291,26.7558,449.146
0.900293,26.8677,450.146
0.902148,26.9591,451.146
0.904248,27.0512,452.146
0.906299,27.1395,453.146
0.908203,27.1213,454.146
0.910205,27.283,455.146
0.912305,27.3861,456.146
0.914258,27.5029,457.146
0.916211,27.7211,458.146
0.918311,27.8839,459.146
0.920264,28.0297,460.146
0.922168,28.0617,461.146
0.924219,28.1534,462.146
0.92627,28.235,463.146
0.928174,28.2941,464.146
0.930225,28.0349,465.146
0.932324,27.9802,466.146
0.934229,27.5059,467.146
0.936182,27.6958,468.146
0.938281,27.8104,469.146
0.940283,27.9463,470.146
0.942139,28.0539,471.146
0.944287,28.1703,472.146
0.946338,27.6974,473.146
0.948242,27.6147,474.146
0.950244,27.6522,475.146
0.952295,27.8185,476.146
0.954248,27.8874,477.146
0.956152,27.9671,478.146
0.958252,28.0196,479.146
0.960254,27.8705,480.146
0.962109,28.0869,481.146
0.964209,28.1585,482.146
0.966309,28.1929,483.146
0.968213,28.2333,484.146
0.970264,28.2491,485.146
0.972314,28.3437,486.146
0.974268,28.2643,487.146
0.976172,28.3054,488.146
0.97832,28.4637,489.146
0.980273,28.5472,490.146
0.982178,28.7169,491.146
0.984277,27.9719,492.146
0.986328,28.3566,493.146
0.988232,28.3447,494.146
0.990186,28.5387,495.146
0.992285,28.6175,496.146
0.994189,28.7003,497.146
0.996143,28.797,498.146
0.998291,29.0216,499.146
1.00024,28.6967,500.146
1.00215,28.8084,501.146
1.0043,28.8577,502.146
1.0063,29.114,503.146
1.0082,29.0824,504.146
1.01025,29.0105,505.146
1.0123,29.0654,506.146
1.01426,29.0629,507.146
1.01621,29.0719,508.146
1.01831,29.2018,509.146
1.02031,29.3103,510.146
1.02217,29.4062,511.146
1.02427,29.5585,512.146
1.02627,29.4177,513.146
1.02817,29.4921,514.146
1.03018,29.5357,515.146
1.03228,29.6626,516.146
1.03428,29.4634,517.146
1.03618,29.6788,518.146
1.03828,29.9576,519.146
1.04028,29.9891,520.146
1.04214,30.1478,521.146
1.04424,30.1205,522.146
1.04634,30.1143,523.146
1.04824,29.9879,524.146
1.05029,30.143,525.146
1.05234,30.1976,526.146
1.05425,30.3578,527.146
1.05615,30.4018,528.146
1.05825,30.5105,529.146
1.06025,30.3687,530.146
1.06211,30.3931,531.146
1.06426,30.5457,532.146
1.06631,30.4606,533.146
1.06821,30.69,534.146
1.07026,30.7488,535.146
1.07231,30.8569,536.146
1.07422,30.9203,537.146
1.07617,30.8499,538.146
1.07827,22.7229,539.146
1.08027,22.8583,540.146
1.08218,23.0504,541.146
1.08428,23.2703,542.146
1.08633,23.3838,543.146
1.08823,23.5968,544.146
1.09019,23.7512,545.146
1.09229,23.832,546.146
1.09419,23.9392,547.146
1.09614,24.0209,548.146
1.09829,24.043,549.146
1.10029,24.0992,550.146
1.10215,24.2721,551.146
1.10425,24.3928,552.146
1.1063,24.5627,553.146
1.1082,24.3602,554.146
1.11021,24.1842,555.146
1.1123,24.1278,556.146
1.11426,24.2373,557.146
1.11621,24.1619,558.146
1.11831,24.2754,559.146
1.12026,24.4354,560.146
1.12212,24.5014,561.146
1.12422,24.5664,562.146
1.12627,24.5877,563.146
1.12817,24.5802,564.146
1.13022,24.7253,565.146
1.13232,24.6099,566.146
1.13423,24.663,567.146
1.13618,24.7263,568.146
1.13828,24.8675,569.146
1.14028,24.9764,570.146
1.14219,25.0278,571.146
1.14429,24.9986,572.146
1.14634,25.1201,573.146
1.14824,25.1141,574.146
1.15024,25.0559,575.146
1.15229,25.074,576.146
1.15425,25.0878,577.146
1.15615,25.2632,578.146
1.15825,25.3978,579.146
1.16025,25.5209,580.146
1.16211,25.5395,581.146
1.16426,25.6169,582.146
1.16631,25.6111,583.146
1.16821,25.6636,584.146
1.17021,25.7064,585.146
1.17231,25.8304,586.146
1.17427,25.8662,587.146
1.17617,25.9888,588.146
1.17832,26.15,589.146
1.18032,26.2185,590.146
1.18218,26.3215,591.146
1.18428,26.3123,592.146
1.18633,26.2884,593.146
1.18823,26.3095,594.146
1.19019,26.4446,595.146
1.19229,26.6331,596.146
1.19419,22.4792,597.146
1.19614,22.6085,598.146
1.19829,22.7051,599.146
1.20029,22.8437,600.146
1.20215,22.9003,601.146
1.20425,22.9803,602.146
1.20635,23.0367,603.146
1.2082,17.6615,604.146
1.21025,17.7629,605.146
1.2123,17.8597,606.146
1.21426,17.8976,607.146
1.21621,17.9526,608.146
1.21836,18.0467,609.146
1.22031,18.0497,610.146
1.22217,18.0479,611.146
1.22427,18.2332,612.146
1.22627,18.2332,613.146
1.22817,18.4109,614.146
1.23018,18.3772,615.146
1.23228,18.5535,616.146
1.23428,18.6528,617.146
1.23618,18.5983,618.146
1.23828,18.5933,619.146
1.24028,18.5771,620.146
1.24214,18.5845,621.146
1.24424,18.5633,622.146
1.24634,18.6228,623.146
1.24824,18.7912,624.146
1.25029,18.8261,625.146
1.25234,18.8687,626.146
1.25425,18.9642,627.146
1.25615,18.9409,628.146
1.25825,18.8926,629.146
1.26025,18.9402,630.146
1.26211,18.8753,631.146
1.26426,18.7007,632.146
1.26631,18.7078,633.146
1.26821,18.8081,634.146
1.27026,18.8307,635.146
1.27231,18.9778,636.146
1.27422,18.9648,637.146
1.27617,19.1307,638.146
1.27827,19.0868,639.146
1.28027,19.0278,640.146
1.28218,19.0703,641.146
1.28428,18.8764,642.146
1.28633,18.9586,643.146
1.28818,19.0889,644.146
1.29019,19.1056,645.146
1.29229,19.1343,646.146
1.29424,19.2113,647.146
1.29614,19.1853,648.146
1.29829,19.2728,649.146
1.30029,19.3665,650.146
1.30215,19.2868,651.146
1.30425,19.3691,652.146
1.3063,19.34,653.146
1.3082,19.2705,654.146
1.31021,19.3214,655.146
1.31235,19.1167,656.146
1.31426,19.3043,657.146
1.31621,19.3446,658.146
1.31831,19.3881,659.146
1.32026,19.4202,660.146
1.32212,19.5035,661.146
1.32422,19.597,662.146
1.32627,19.7049,663.146
1.32817,19.6334,664.146
1.33022,19.642,665.146
1.33232,19.5257,666.146
1.33423,19.6497,667.146
1.33618,19.5544,668.146
1.33828,19.5621,669.146
1.34028,19.6294,670.146
1.34219,19.6832,671.146
1.34429,19.7744,672.146
1.34634,19.7306,673.146
1.34824,19.7969,674.146
1.35024,19.9989,675.146
1.35234,19.8869,676.146
1.35425,19.8871,677.146
1.35615,19.9053,678.146
1.35825,19.9636,679.146
1.36025,19.8483,680.146
1.36211,19.6936,681.146
1.36421,19.9358,682.146
1.36631,19.9187,683.146
1.36821,19.9839,684.146
1.37026,20.0136,685.146
1.37231,20.2361,686.146
1.37427,20.1994,687.146
1.37617,20.1503,688.146
1.37832,20.1326,689.146
1.38027,20.1371,690.146
1.38218,20.158,691.146
1.38428,20.1114,692.146
1.38633,20.1914,693.146
1.38823,20.2349,694.146
1.39019,20.337,695.146
1.39229,20.2261,696.146
1.39419,20.4273,697.146
1.39614,20.4861,698.146
1.39829,20.4384,699.146
1.40029,20.4616,700.146
1.40215,20.3917,701.146
1.4043,20.3472,702.146
1.4063,20.3038,703.146
1.4082,20.4053,704.146
1.41025,20.4908,705.146
1.4123,20.483,706.146
1.41426,20.562,707.146
1.41621,20.7167,708.146
1.41836,20.5262,709.146
1.42026,20.5734,710.146
1.42217,20.6165,711.146
1.42422,20.6151,712.146
1.42627,20.579,713.146
1.42817,20.6523,714.146
1.43018,20.6111,715.146
1.43232,20.7223,716.146
1.43428,20.8335,717.146
1.43618,20.8245,718.146
1.43828,20.8554,719.146
1.44028,20.8488,720.146
1.44214,20.799,721.146
1.44424,20.4069,722.146
1.44634,20.4719,723.146
1.44824,20.4909,724.146
1.45029,20.5449,725.146
1.45234,20.5757,726.146
1.45425,20.6714,727.146
1.45615,20.6722,728.146
1.45825,20.6924,729.146
1.46025,20.7153,730.146
1.46216,20.728,731.146
1.46426,20.6784,732.146
1.46631,20.7368,733.146
1.46821,20.7525,734.146
1.47021,20.8125,735.146
1.47231,20.9,736.146
1.47422,20.9612,737.146
1.47617,20.9425,738.146
1.47827,20.9165,739.146
1.48027,20.7803,740.146
1.48218,20.8594,741.146
1.48428,20.8575,742.146
1.48633,20.8562,743.146
1.48818,20.9618,744.146
1.49023,20.9739,745.146
1.49229,21.0671,746.146
1.49424,21.0436,747.146
1.49614,21.0559,748.146
1.49829,21.0675,749.146
1.50029,21.063,750.146
1.5022,20.8394,751.146
1.50425,20.8649,752.146
1.5063,21.0675,753.146
1.5082,20.9906,754.146
1.51021,21.1551,755.146
1.5123,21.2286,756.146
1.51431,21.087,757.146
1.51621,21.1274,758.146
1.51831,21.1392,759.146
1.52026,21.1461,760.146
1.52212,21.0757,761.146
1.52422,21.0602,762.146
1.52627,21.1366,763.146
1.52817,21.0396,764.146
1.53022,21.2006,765.146
1.53232,21.2611,766.146
1.53428,21.2911,767.146
1.53618,21.2196,768.146
1.53828,21.2685,769.146
1.54028,21.2805,770.146
1.54219,21.2015,771.146
1.54429,21.2243,772.146
1.54634,21.3057,773.146
1.54824,21.165,774.146
1.55024,21.3265,775.146
1.55234,21.5023,776.146
1.55425,21.4223,777.146
1.55615,21.4262,778.146
1.55825,21.373,779.146
1.56025,21.319,780.146
1.56211,21.3851,781.146
1.56426,21.4625,782.146
1.56631,21.4868,783.146
1.56821,21.484,784.146
1.57026,21.5449,785.146
1.57231,21.6502,786.146
1.57427,21.6127,787.146
1.57617,21.6367,788.146
1.57832,21.5485,789.146
1.58027,21.5752,790.146
1.58218,21.6388,791.146
1.58428,21.612,792.146
1.58633,21.4894,793.146
1.58823,21.3744,794.146
1.59019,21.4625,795.146
1.59229,21.4864,796.146
1.59419,21.5004,797.146
1.59614,21.4994,798.146
1.59824,21.411,799.146
1.60024,21.4049,800.146
1.60215,21.4256,801.146
1.6043,21.3778,802.146
1.6063,21.5078,803.146
1.6082,21.5678,804.146
1.61021,21.5931,805.146
1.6123,21.7293,806.146
1.61426,21.7372,807.146
1.61621,21.7791,808.146
1.61831,21.7571,809.146
1.62031,21.5335,810.146
1.62217,21.6023,811.146
1.62422,21.6679,812.146
1.62627,21.8485,813.146
1.62817,21.7977,814.146
1.63018,21.9178,815.146
1.63232,21.9611,816.146
1.63428,21.9755,817.146
1.63618,22.0202,818.146
1.63828,22.0615,819.146
1.64028,22.0967,820.146
1.64214,22.0059,821.146
1.64424,22.0286,822.146
1.64634,21.9172,823.146
1.64824,22.0428,824.146
1.65029,22.1705,825.146
1.65234,22.2452,826.146
1.6543,22.2855,827.146
1.65615,22.4121,828.146
1.65825,22.3831,829.146
1.66025,22.4316,830.146
1.66211,22.415,831.146
1.66426,22.3655,832.146
1.66631,22.3138,833.146
1.66821,22.4673,834.146
1.67026,22.459,835.146
1.67231,22.3192,836.146
1.67422,22.3877,837.146
1.67617,22.5744,838.146
1.67832,22.653,839.146
1.68027,22.7227,840.146
1.68218,22.7268,841.146
1.68433,22.6893,842.146
1.68633,22.7656,843.146
1.68823,22.7575,844.146
1.69019,22.746,845.146
1.69229,22.7215,846.146
1.69424,22.8879,847.146
1.69614,22.9466,848.146
1.69829,22.9072,849.146
1.70029,22.992,850.146
1.70215,23.0282,851.146
1.70425,23.1444,852.146
1.7063,23.1749,853.146
1.7082,23.1671,854.146
1.71021,23.1519,855.146
1.7123,23.1482,856.146
1.71426,23.0662,857.146
1.71621,23.0136,858.146
1.71831,23.1763,859.146
1.72026,23.2935,860.146
1.72217,23.3001,861.146
1.72422,23.3086,862.146
1.72627,23.3649,863.146
1.72817,23.2917,864.146
1.73022,23.3083,865.146
1.73232,23.3866,866.146
1.73423,23.3053,867.146
1.73618,23.2775,868.146
1.73828,23.4412,869.146
1.74028,23.418,870.146
1.74214,23.5618,871.146
1.74429,23.6399,872.146
1.74634,23.6846,873.146
1.74824,23.7053,874.146
1.75024,23.4961,875.146
1.75229,23.5863,876.146
1.75425,23.5709,877.146
1.75615,23.6475,878.146
1.75825,23.6843,879.146
1.76025,23.7642,880.146
1.76211,23.8863,881.146
1.76421,23.9076,882.146
1.76631,23.9891,883.146
1.76821,23.9934,884.146
1.77026,23.9057,885.146
1.77231,23.5844,886.146
1.77427,23.8001,887.146
1.77617,23.9224,888.146
1.77832,24.0139,889.146
1.78027,24.0324,890.146
1.78218,24.137,891.146
1.78428,24.1579,892.146
1.78633,24.1942,893.146
1.78823,24.1449,894.146
1.79019,23.8827,895.146
1.79229,24.0608,896.146
1.79419,24.2074,897.146
1.79614,24.3197,898.146
1.79829,24.3923,899.146
1.80029,24.4485,900.146
1.80215,24.4701,901.146
1.80425,24.4428,902.146
1.8063,24.522,903.146
1.8082,24.366,904.146
1.81021,24.402,905.146
1.8123,24.5987,906.146
1.81426,24.6489,907.146
1.81621,24.3026,908.146
1.81831,24.6091,909.146
1.82031,24.7379,910.146
1.82217,24.7196,911.146
1.82422,24.7781,912.146
1.82627,24.8007,913.146
1.82817,24.7643,914.146
1.83018,24.8028,915.146
1.83232,24.9521,916.146
1.83428,24.9324,917.146
1.83618,25.0875,918.146
1.83828,25.2025,919.146
1.84028,25.2358,920.146
1.84214,25.1629,921.146
1.84424,25.1564,922.146
1.84634,25.2058,923.146
1.84824,25.2125,924.146
1.85029,25.229,925.146
1.85234,25.2185,926.146
1.85425,25.2277,927.146
1.85615,25.3772,928.146
1.85825,24.964,929.146
1.86025,25.2027,930.146
1.86216,25.3772,931.146
1.86426,25.4552,932.146
1.86631,25.4172,933.146
1.86821,25.5113,934.146
1.87026,25.4725,935.146
1.87231,25.5291,936.146
1.87427,25.5236,937.146
1.87617,25.5465,938.146
1.87832,25.6222,939.146
1.88032,25.6874,940.146
1.88218,25.7439,941.146
1.88433,25.9179,942.146
1.88633,25.9504,943.146
1.88823,26.0057,944.146
1.89019,26.1123,945.146
1.89229,26.012,946.146
1.89424,26.052,947.146
1.89614,26.1531,948.146
1.89829,26.1497,949.146
1.90029,25.7673,950.146
1.9022,25.8717,951.146
1.90425,25.9452,952.146
1.9063,26.1305,953.146
1.9082,26.1031,954.146
1.91021,26.1934,955.146
1.9123,26.3266,956.146
1.91426,26.3667,957.146
1.91621,26.4328,958.146
1.91831,26.512,959.146
1.92026,26.7611,960.146
1.92212,26.5614,961.146
1.92422,26.648,962.146
1.92627,26.7044,963.146
1.92817,26.6804,964.146
1.93022,26.7086,965.146
1.93232,26.6519,966.146
1.93423,26.7593,967.146
1.93618,26.406,968.146
1.93828,26.6703,969.146
1.94028,26.7401,970.146
1.94219,26.7985,971.146
1.94429,26.9171,972.146
1.94634,27.0549,973.146
1.94824,27.0216,974.146
1.95024,27.0575,975.146
1.95234,27.0575,976.146
1.95425,26.9839,977.146
1.95615,26.9732,978.146
1.95825,26.9238,979.146
1.96025,27.059,980.146
1.96211,27.059,981.146
1.96421,27.1176,982.146
1.96631,27.2235,983.146
1.96821,27.2674,984.146
1.97026,27.3333,985.146
1.97231,27.3658,986.146
1.97427,27.4558,987.146
1.97617,27.3658,988.146
1.97832,27.4804,989.146
1.98027,27.1267,990.146
1.98218,27.0638,991.146
1.98428,26.6429,992.146
1.98633,26.7202,993.146
1.98823,26.8414,994.146
1.99019,26.9225,995.146
1.99229,26.9785,996.146
1.99419,26.9782,997.146
1.99614,27.1403,998.146
1.99824,27.1927,999.146
2.00024,27.2308,1000.15
2.00215,27.3734,1001.15
2.0043,27.3422,1002.15
2.0063,27.4557,1003.15
2.0082,27.4508,1004.15
2.01021,27.5254,1005.15
2.0123,27.5103,1006.15
2.01426,27.4893,1007.15
2.01621,27.6213,1008.15
2.01836,27.5739,1009.15
2.02031,27.6167,1010.15
2.02217,27.5591,1011.15
2.02422,27.7157,1012.15
2.02627,27.8257,1013.15
2.02817,27.8117,1014.15
2.03018,27.9004,1015.15
2.03232,27.8953,1016.15
2.03428,27.8175,1017.15
2.03618,27.7415,1018.15
2.03828,27.4642,1019.15
2.04023,27.5286,1020.15
2.04214,27.5247,1021.15
2.04424,27.432,1022.15
2.04634,27.4437,1023.15
2.04824,27.4685,1024.15
2.05029,27.539,1025.15
2.05234,27.056,1026.15
2.05425,27.2889,1027.15
2.05615,27.3931,1028.15
2.05825,27.5532,1029.15
2.06025,27.7272,1030.15
2.06211,27.7635,1031.15
2.06426,27.7579,1032.15
2.06631,27.8709,1033.15
2.06821,27.8074,1034.15
2.07026,27.8455,1035.15
2.07231,27.8302,1036.15
2.07422,27.8441,1037.15
2.07617,27.8693,1038.15
2.07827,27.8254,1039.15
2.08027,27.8111,1040.15
2.08218,27.9614,1041.15
2.08428,27.9594,1042.15
2.08633,28.0199,1043.15
2.08818,28.0244,1044.15
2.09019,28.0327,1045.15
2.09229,28.052,1046.15
2.09424,28.0825,1047.15
2.09614,28.031,1048.15
2.09829,28.0202,1049.15
2.10029,27.9384,1050.15
2.10215,27.9133,1051.15
2.10425,27.9055,1052.15
2.1063,27.8414,1053.15
2.1082,27.832,1054.15
2.11025,27.8803,1055.15
2.11235,27.8431,1056.15
2.11426,27.9878,1057.15
2.11621,27.9499,1058.15
2.11831,27.9794,1059.15
2.12026,28.0037,1060.15
2.12212,28.0254,1061.15
2.12422,28.0501,1062.15
2.12627,28.0405,1063.15
2.12817,27.9042,1064.15
2.13022,27.7905,1065.15
2.13232,27.6954,1066.15
2.13423,27.7119,1067.15
2.13618,27.7696,1068.15
2.13833,27.7452,1069.15
2.14028,27.7555,1070.15
2.14219,27.9268,1071.15
2.14429,27.857,1072.15
2.14634,27.8893,1073.15
2.14824,27.9978,1074.15
2.15024,28.1808,1075.15
2.15229,28.2343,1076.15
2.15425,28.1561,1077.15
2.15615,28.1355,1078.15
2.15825,28.1436,1079.15
2.16025,28.2067,1080.15
2.16211,28.2051,1081.15
2.16421,28.1447,1082.15
2.16631,28.1339,1083.15
2.16821,28.0575,1084.15
2.17026,28.1406,1085.15
2.17231,28.1469,1086.15
2.17427,28.2488,1087.15
2.17617,28.2824,1088.15
2.17832,28.3516,1089.15
2.18032,28.3527,1090.15
2.18218,28.3707,1091.15
2.18428,28.3713,1092.15
2.18633,28.3716,1093.15
2.18823,28.4499,1094.15
2.19019,28.4243,1095.15
2.19229,28.4802,1096.15
2.19424,28.3085,1097.15
2.19614,28.3525,1098.15
2.19829,28.4265,1099.15
2.20029,28.3803,1100.15
2.20215,28.5463,1101.15
2.20425,28.5713,1102.15
2.2063,28.6435,1103.15
2.2082,28.5325,1104.15
2.21025,28.4175,1105.15
2.2123,28.3925,1106.15
2.21426,28.345,1107.15
2.21621,28.3363,1108.15
2.21831,28.3333,1109.15
2.22031,27.5755,1110.15
2.22217,27.5632,1111.15
2.22422,27.6749,1112.15
2.22627,27.8943,1113.15
2.22817,27.8707,1114.15
2.23018,27.9193,1115.15
2.23232,28.0333,1116.15
2.23428,28.1494,1117.15
2.23618,28.0669,1118.15
2.23828,28.1344,1119.15
2.24028,28.1346,1120.15
2.24214,28.0554,1121.15
2.24429,28.0962,1122.15
2.24634,28.0994,1123.15
2.24824,28.0506,1124.15
2.25029,28.0196,1125.15
2.25234,27.9868,1126.15
2.25425,27.9832,1127.15
2.25615,28.1238,1128.15
2.25825,28.1612,1129.15
2.26025,28.1515,1130.15
2.26211,28.2628,1131.15
2.26426,28.3108,1132.15
2.26631,28.3238,1133.15
2.26821,28.3593,1134.15
2.27026,28.4234,1135.15
2.27231,28.4013,1136.15
2.27422,28.3609,1137.15
2.27617,28.292,1138.15
2.27827,28.2054,1139.15
2.28027,28.2696,1140.15
2.28218,28.3202,1141.15
2.28428,28.3649,1142.15
2.28633,28.3546,1143.15
2.28818,28.4085,1144.15
2.29019,28.5088,1145.15
2.29229,28.5926,1146.15
2.29424,28.492,1147.15
2.29614,28.4506,1148.15
2.29829,28.5893,1149.15
2.30029,28.4594,1150.15
2.30215,28.4943,1151.15
2.30425,28.4825,1152.15
2.3063,28.4229,1153.15
2.3082,28.383,1154.15
2.31021,28.5353,1155.15
2.3123,28.4379,1156.15
2.31426,28.4516,1157.15
2.31621,28.5483,1158.15
2.31831,28.7195,1159.15
2.32026,28.5999,1160.15
2.32212,28.694,1161.15
2.32422,28.6628,1162.15
2.32627,28.6912,1163.15
2.32817,28.5573,1164.15
2.33022,28.5308,1165.15
2.33232,28.4635,1166.15
2.33428,28.5022,1167.15
2.33618,28.4455,1168.15
2.33828,28.5144,1169.15
2.34028,28.6066,1170.15
2.34219,28.5431,1171.15
2.34429,28.6177,1172.15
2.34634,28.6562,1173.15
2.34824,28.631,1174.15
2.35024,28.6196,1175.15
2.35229,28.6284,1176.15
2.35425,28.6192,1177.15
2.35615,28.6772,1178.15
2.35825,28.6002,1179.15
2.36025,28.5534,1180.15
2.36211,28.5132,1181.15
2.36426,28.2578,1182.15
2.36631,28.2888,1183.15
2.36821,28.4112,1184.15
2.37021,28.4063,1185.15
2.37231,28.4511,1186.15
2.37427,28.5778,1187.15
2.37617,28.6888,1188.15
2.37832,28.6992,1189.15
2.38027,28.6677,1190.15
2.38218,28.6924,1191.15
2.38428,28.6704,1192.15
2.38633,28.7595,1193.15
2.38823,28.7082,1194.15
2.39019,28.7103,1195.15
2.39229,28.742,1196.15
2.39424,28.7775,1197.15
2.39614,28.7835,1198.15
2.39829,28.8015,1199.15
2.40029,28.8049,1200.15
2.40215,28.834,1201.15
2.40425,28.854,1202.15
2.4063,28.8436,1203.15
2.4082,28.9233,1204.15
2.41021,28.9402,1205.15
2.4123,28.9091,1206.15
2.41426,28.9089,1207.15
2.41621,28.8811,1208.15
2.41836,28.9904,1209.15
2.42031,29.0277,1210.15
2.42217,29.1114,1211.15
2.42427,29.101,1212.15
2.42627,29.0377,1213.15
2.42817,29.237,1214.15
2.43018,29.1717,1215.15
2.43232,29.2397,1216.15
2.43428,29.1839,1217.15
2.43618,29.0817,1218.15
2.43833,29.0926,1219.15
2.44028,29.018,1220.15
2.44214,29.096,1221.15
2.44424,29.0711,1222.15
2.44634,29.0841,1223.15
2.44824,29.125,1224.15
2.45029,29.2482,1225.15
2.45234,28.7349,1226.15
2.45425,29.0312,1227.15
2.45615,28.9012,1228.15
2.45825,28.9523,1229.15
2.46025,28.9856,1230.15
2.46211,29.0387,1231.15
2.46426,29.069,1232.15
2.46631,28.9987,1233.15
2.46821,28.9895,1234.15
2.47026,29.0146,1235.15
2.47231,26.6251,1236.15
2.47422,26.8392,1237.15
2.47617,27.0365,1238.15
2.47827,27.2598,1239.15
2.48027,27.4402,1240.15
2.48218,27.4961,1241.15
2.48428,27.677,1242.15
2.48633,27.807,1243.15
2.48818,27.8446,1244.15
2.49019,27.9131,1245.15
2.49229,27.8095,1246.15
2.49419,27.8729,1247.15
2.49614,27.8641,1248.15
2.49829,27.8754,1249.15
2.50029,27.8686,1250.15
2.5022,27.8629,1251.15
2.50425,27.9578,1252.15
2.5063,27.9934,1253.15
2.5082,28.0857,1254.15
2.51021,28.1688,1255.15
2.51235,28.2751,1256.15
2.51426,28.0995,1257.15
2.51621,28.0829,1258.15
2.51831,28.2588,1259.15
2.52026,28.1854,1260.15
2.52212,28.2482,1261.15
2.52422,28.1452,1262.15
2.52627,28.1417,1263.15
2.52817,28.1959,1264.15
2.53022,28.2506,1265.15
2.53232,28.3098,1266.15
2.53428,28.2274,1267.15
2.53618,28.2897,1268.15
2.53828,28.4168,1269.15
2.54028,28.4229,1270.15
2.54214,28.4317,1271.15
2.54429,28.4883,1272.15
2.54634,28.4696,1273.15
2.54824,28.5624,1274.15
2.55024,28.4925,1275.15
2.55234,28.4675,1276.15
2.55425,28.4855,1277.15
2.55615,28.3645,1278.15
2.55825,28.4834,1279.15
2.56025,28.5108,1280.15
2.56211,28.5688,1281.15
2.56421,28.5957,1282.15
2.56631,28.6713,1283.15
2.56821,28.7026,1284.15
2.57026,28.7519,1285.15
2.57231,28.7313,1286.15
2.57427,28.844,1287.15
2.57617,28.6761,1288.15
2.57832,28.8631,1289.15
2.58027,28.8049,1290.15
2.58218,28.8104,1291.15
2.58428,28.8613,1292.15
2.58633,28.8306,1293.15
2.58823,28.8509,1294.15
2.59019,28.8481,1295.15
2.59229,28.8185,1296.15
2.59424,28.8341,1297.15
2.59614,28.8553,1298.15
2.59829,28.9414,1299.15
2.60024,28.9089,1300.15
2.60215,28.9979,1301.15
2.6043,28.9955,1302.15
2.6063,29.0155,1303.15
2.6082,28.9882,1304.15
2.61025,28.946,1305.15
2.6123,28.7439,1306.15
2.61426,28.7799,1307.15
2.61621,28.793,1308.15
2.61831,28.7992,1309.15
2.62031,28.8109,1310.15
2.62217,28.8981,1311.15
2.62422,28.9096,1312.15
2.62627,29.074,1313.15
2.62817,28.9494,1314.15
2.63018,29.0483,1315.15
2.63228,29.0695,1316.15
2.63423,29.0356,1317.15
2.63618,28.9822,1318.15
2.63828,29.075,1319.15
2.64028,28.8999,1320.15
2.64214,28.9937,1321.15
2.64424,28.9429,1322.15
2.64629,29.0184,1323.15
2.64824,29.0181,1324.15
2.65029,29.0387,1325.15
2.65234,29.1143,1326.15
2.65425,29.1404,1327.15
2.65615,29.1213,1328.15
2.65825,29.1692,1329.15
2.66025,29.1929,1330.15
2.66211,29.2231,1331.15
2.66426,29.0817,1332.15
2.66631,29.0762,1333.15
2.66821,28.9745,1334.15
2.67026,29.0067,1335.15
2.67231,29.0555,1336.15
2.67422,28.9538,1337.15
2.67617,29.0294,1338.15
2.67827,29.0255,1339.15
2.68027,29.1218,1340.15
2.68218,29.1346,1341.15
2.68428,29.2105,1342.15
2.68633,29.3099,1343.15
2.68823,29.2705,1344.15
2.69019,29.2252,1345.15
2.69229,29.1378,1346.15
2.69419,29.1882,1347.15
2.69614,29.2404,1348.15
2.69829,29.1685,1349.15
2.70029,29.1671,1350.15
2.7022,29.1898,1351.15
2.70425,29.2453,1352.15
2.7063,29.1772,1353.15
2.7082,29.1947,1354.15
2.71021,29.2338,1355.15
2.71235,29.315,1356.15
2.71431,29.358,1357.15
2.71621,29.2992,1358.15
2.71831,29.3205,1359.15
2.72026,29.3074,1360.15
2.72217,29.2186,1361.15
2.72422,29.2072,1362.15
2.72627,29.2032,1363.15
2.72817,29.1712,1364.15
2.73022,29.2864,1365.15
2.73232,29.3215,1366.15
2.73428,29.3474,1367.15
2.73618,29.5032,1368.15
2.73828,29.4289,1369.15
2.74028,29.3976,1370.15
2.74219,29.4112,1371.15
2.74429,29.3781,1372.15
2.74634,29.3187,1373.15
2.74824,29.3026,1374.15
2.75024,29.3202,1375.15
2.75234,29.2759,1376.15
2.75425,29.2279,1377.15
2.75615,29.2458,1378.15
2.75825,29.2656,1379.15
2.76025,29.3682,1380.15
2.76211,29.3277,1381.15
2.76426,29.3997,1382.15
2.76631,29.3084,1383.15
2.76821,29.3104,1384.15
2.77026,29.2756,1385.15
2.77231,29.1422,1386.15
2.77427,29.1565,1387.15
2.77617,29.1941,1388.15
2.77832,29.2826,1389.15
2.78027,29.2864,1390.15
2.78218,29.3108,1391.15
2.78428,29.3433,1392.15
2.78633,29.2839,1393.15
2.78823,29.2886,1394.15
2.79019,29.2506,1395.15
2.79229,29.2466,1396.15
2.79419,29.2293,1397.15
2.79614,29.2474,1398.15
2.79824,29.2527,1399.15
2.80024,29.3097,1400.15
2.80215,29.4425,1401.15
2.80425,29.5322,1402.15
2.8063,29.5517,1403.15
2.8082,29.5176,1404.15
2.81025,29.4766,1405.15
2.8123,29.469,1406.15
2.81426,29.4436,1407.15
2.81621,29.352,1408.15
2.81836,29.3998,1409.15
2.82031,29.3895,1410.15
2.82217,29.4294,1411.15
2.82422,29.5378,1412.15
2.82627,29.5233,1413.15
2.82817,29.5427,1414.15
2.83018,29.5009,1415.15
2.83228,29.5562,1416.15
2.83428,29.5668,1417.15
2.83618,29.3691,1418.15
2.83828,29.3519,1419.15
2.84028,29.3357,1420.15
2.84214,29.3827,1421.15
2.84424,29.3864,1422.15
2.84634,29.4173,1423.15
2.84824,29.369,1424.15
2.85029,29.5154,1425.15
2.85234,29.4319,1426.15
2.85425,29.3748,1427.15
2.85615,29.3094,1428.15
2.85825,29.4085,1429.15
2.86025,29.396,1430.15
2.86211,29.3095,1431.15
2.86426,29.3933,1432.15
2.86631,29.5185,1433.15
2.86821,29.4633,1434.15
2.87021,29.4835,1435.15
2.87231,29.4937,1436.15
2.87422,29.4861,1437.15
2.87617,29.3912,1438.15
2.87827,29.5669,1439.15
2.88027,29.4977,1440.15
2.88218,29.3985,1441.15
2.88428,29.4262,1442.15
2.88633,29.4849,1443.15
2.88818,29.5396,1444.15
2.89019,29.5059,1445.15
2.89229,29.6125,1446.15
2.89424,29.6552,1447.15
2.89614,29.7321,1448.15
2.89829,29.6905,1449.15
2.90029,29.6553,1450.15
2.90215,29.6056,1451.15
2.90425,29.6546,1452.15
2.9063,29.5889,1453.15
2.9082,29.6224,1454.15
2.91025,29.6486,1455.15
2.9123,29.6577,1456.15
2.91426,29.7235,1457.15
2.91621,29.7253,1458.15
2.91831,29.7362,1459.15
2.92026,29.7809,1460.15
2.92217,29.7914,1461.15
2.92422,29.9173,1462.15
2.92627,29.9875,1463.15
2.92817,29.9141,1464.15
2.93022,29.9506,1465.15
2.93232,29.9079,1466.15
2.93423,29.9084,1467.15
2.93618,29.964,1468.15
2.93833,29.9081,1469.15
2.94028,29.9693,1470.15
2.94219,29.9741,1471.15
2.94429,30.0427,1472.15
2.94634,30.0357,1473.15
2.94824,30.1609,1474.15
2.95024,30.1922,1475.15
2.95234,30.1593,1476.15
2.95425,30.1528,1477.15
2.95615,30.0874,1478.15
2.95825,30.1435,1479.15
2.96021,30.1294,1480.15
2.96211,30.1506,1481.15
2.96421,30.1497,1482.15
2.96631,30.2405,1483.15
2.96821,30.1576,1484.15
2.97026,30.2874,1485.15
2.97183,30.2479,1485.91