File: Data/Thesis_Samples_Data/Flexural_Solid_1/Flexural_Solid_1.csv
"File Path: C:\Users\Lab User\Desktop\Will\Thesis Tests\Test Run 4 04-8-22 14 52 26 PM\DAQ- Crosshead, … - (Timed).txt   ",,
Test: MTS EM Flexure (3-Point Bend) - Will 1,,
Test Run: Test Run 4,,
Date: 4/8/2022 2:47:17 PM,,
,,
,,
Crosshead ,Load ,Time
mm,N,sec
0,2.75353,0.02
4.88E-05,2.83867,0.16
0.000195312,2.93306,0.3
0.000390625,3.05025,0.44
0.000634766,3.43729,0.58
0.001025391,3.72348,0.72
0.001464844,4.36818,0.86
0.001904297,4.67763,1
0.002246094,4.94688,1.14
0.002539063,5.23453,1.28
0.002832031,5.21831,1.42
0.003125,5.32831,1.56
0.003369141,5.53597,1.7
0.003662109,5.54566,1.84
0.00390625,5.76291,1.98
0.004199219,5.83103,2.12
0.00444336,5.93914,2.26
0.0046875,6.20494,2.4
0.004980469,6.16951,2.54
0.00522461,6.40064,2.68
0.005517578,6.42764,2.82
0.005761719,6.36767,2.96
0.006054688,6.62331,3.1
0.006347656,6.73489,3.24
0.006640625,6.8299,3.38
0.006933594,7.02664,3.52
0.007275391,6.97923,3.66
0.007568359,7.2152,3.8
0.007861328,7.279,3.94
0.008154297,7.43563,4.08
0.008447266,7.73142,4.22
0.008789062,7.66533,4.36
0.009033203,7.94811,4.5
0.009326171,8.13744,4.64
0.009619141,8.08134,4.78
0.009863281,8.46236,4.92
0.01015625,8.57598,5.06
0.01040039,8.76021,5.2
0.0106934,8.94828,5.34
0.0109375,8.94494,5.48
0.0112305,9.23554,5.62
0.0114746,9.4159,5.76
0.0117676,9.4094,5.9
0.0120117,9.93013,6.04
0.0123047,10.0355,6.18
0.0125488,10.0808,6.32
0.0128418,10.4573,6.46
0.0131348,10.5039,6.6
0.0134277,10.916,6.74
0.0137695,11.1831,6.88
0.0140625,11.3422,7.02
0.0143555,11.7133,7.16
0.0146484,11.8654,7.3
0.0149414,12.1305,7.44
0.0152344,12.3551,7.58
0.0155273,12.6325,7.72
0.0158203,13.093,7.86
0.0160645,13.1823,8
0.0163574,13.4576,8.14
0.0166016,13.8856,8.28
0.0168945,13.9802,8.42
0.0171387,14.3886,8.56
0.0174316,14.5831,8.7
0.0176758,14.8604,8.84
0.01796875,15.2361,8.98
0.0182129,15.4613,9.12
0.018457,15.7259,9.26
0.01875,16.0767,9.4
0.01899414,16.3545,9.54
0.01928711,16.8045,9.68
0.0195801,17.0581,9.82
0.019873,17.4511,9.96
0.020166,17.9321,10.1
0.020459,18.0919,10.24
0.020752,18.636,10.38
0.0210449,19.0209,10.52
0.0213867,19.3894,10.66
0.0216797,19.8676,10.8
0.0219727,20.2264,10.94
0.0222168,20.7314,11.08
0.0225098,21.1559,11.22
0.0228027,21.3867,11.36
0.0230957,21.8797,11.5
0.0233398,22.2476,11.64
0.023584,22.6532,11.78
0.023877,23.2184,11.92
0.0241699,23.5467,12.06
0.0244141,23.9718,12.2
0.0246582,24.3921,12.34
0.0249512,24.7537,12.48
0.0251953,25.3723,12.62
0.0254395,25.621,12.76
0.0257324,26.1478,12.9
0.0259766,26.6843,13.04
0.0262695,27.0089,13.18
0.0265625,27.7212,13.32
0.0269043,28.2111,13.46
0.0271973,28.7704,13.6
0.0274902,29.4438,13.74
0.0277832,29.7655,13.88
0.0280762,30.4273,14.02
0.0283691,30.9248,14.16
0.0286621,31.3041,14.3
0.0289551,32.1327,14.44
0.029248,32.4627,14.58
0.0294922,33.0933,14.72
0.0297852,33.7487,14.86
0.0300781,34.1529,15
0.0303223,34.7745,15.14
0.0306152,35.311,15.28
0.0308594,35.8091,15.42
0.0311523,36.4615,15.56
0.0313965,37.0049,15.7
0.0316406,37.6709,15.84
0.0319336,38.2872,15.98
0.0321777,38.7905,16.12
0.0324219,39.5081,16.26
0.0327148,40.0855,16.4
0.0330078,40.7673,16.54
0.0333008,41.615,16.68
0.0335938,42.3122,16.82
0.0338867,43.0877,16.96
0.0341797,43.7758,17.1
0.0344727,44.5192,17.24
0.0347656,45.5322,17.38
0.0350586,46.1563,17.52
0.0353516,46.9957,17.66
0.0356445,47.7615,17.8
0.0358887,48.4568,17.94
0.0361816,49.4937,18.08
0.0364746,50.1237,18.22
0.0367187,50.9259,18.36
0.03701172,51.8465,18.5
0.0372559,52.4301,18.64
0.0375488,53.3193,18.78
0.037793,54.153,18.92
0.0380371,54.7536,19.06
0.03828125,55.5908,19.2
0.0385742,56.4811,19.34
0.0388672,57.3946,19.48
0.0391113,58.2315,19.62
0.0394043,59.0923,19.76
0.0396973,60.027,19.9
0.0399902,61.0656,20.04
0.0402832,62.0134,20.18
0.0405762,63.2717,20.32
0.0408691,64.0574,20.46
0.0411621,65.0639,20.6
0.0415039,66.0871,20.74
0.041748,66.9275,20.88
0.042041,68.0369,21.02
0.042334,68.9267,21.16
0.042627,69.9321,21.3
0.0429199,70.8478,21.44
0.0431641,71.6568,21.58
0.043457,72.9593,21.72
0.04375,73.7359,21.86
0.04399414,74.707,22
0.04428711,75.6821,22.14
0.0445313,76.5142,22.28
0.0447754,77.5899,22.42
0.0450684,78.5252,22.56
0.0453125,79.3866,22.7
0.0456055,80.4996,22.84
0.0458496,81.4701,22.98
0.0461426,82.4077,23.12
0.0464355,83.7385,23.26
0.0467285,84.8141,23.4
0.0470215,85.9551,23.54
0.0473633,87.2012,23.68
0.0476562,88.1678,23.82
0.0479492,89.5102,23.96
0.0482422,90.6966,24.1
0.0485352,91.662,24.24
0.0488281,92.8246,24.38
0.0491211,94.0601,24.52
0.0494141,95.1978,24.66
0.0496582,96.2757,24.8
0.0499512,97.513,24.94
0.0501953,98.5009,25.08
0.0504883,99.3937,25.22
0.0507324,100.712,25.36
0.0509766,101.561,25.5
0.05126953,102.636,25.64
0.0515137,103.94,25.78
0.0518066,104.907,25.92
0.0520508,105.971,26.06
0.0522949,107.207,26.2
0.0526367,108.406,26.34
0.05288086,109.637,26.48
0.05317383,110.705,26.62
0.0534668,112.323,26.76
0.0538086,113.823,26.9
0.0541016,114.777,27.04
0.0543945,116.297,27.18
0.0546875,117.78,27.32
0.0549805,118.851,27.46
0.0552734,120.308,27.6
0.0555176,121.483,27.74
0.0558594,122.916,27.88
0.0561035,124.103,28.02
0.0563965,125.358,28.16
0.0566895,126.834,28.3
0.0569336,128.085,28.44
0.0572266,129.429,28.58
0.0574707,130.576,28.72
0.0577148,131.692,28.86
0.0580078,133.044,29
0.058252,134.372,29.14
0.0585449,135.592,29.28
0.0587891,137.137,29.42
0.059082,138.174,29.56
0.0593262,139.601,29.7
0.0596191,141.062,29.84
0.0599121,142.542,29.98
0.0602539,144.203,30.12
0.0605469,145.671,30.26
0.0608398,147.127,30.4
0.0611328,148.455,30.54
0.0614258,149.802,30.68
0.0617187,151.208,30.82
0.0620117,152.207,30.96
0.0623047,153.441,31.1
0.0625977,154.845,31.24
0.0628418,155.826,31.38
0.0631348,156.736,31.52
0.06337891,157.83,31.66
0.0636719,158.631,31.8
0.063916,159.794,31.94
0.0641602,160.642,32.08
0.0644531,161.63,32.22
0.0646973,162.577,32.36
0.0649414,163.486,32.5
0.0652344,164.739,32.64
0.0654785,165.933,32.78
0.0657715,167.137,32.92
0.0660156,168.632,33.06
0.0663086,169.879,33.2
0.0666016,171.446,33.34
0.0668945,173.204,33.48
0.0671875,174.906,33.62
0.0674805,176.817,33.76
0.0678223,178.431,33.9
0.0680664,180.085,34.04
0.0683594,182.111,34.18
0.0686523,183.74,34.32
0.0689453,185.475,34.46
0.0692383,187.219,34.6
0.0695312,189.014,34.74
0.0697754,190.709,34.88
0.0700195,191.733,35.02
0.0703125,192.941,35.16
0.0706055,194.355,35.3
0.0708496,195.499,35.44
0.0710938,196.986,35.58
0.0713867,198.265,35.72
0.0716309,198.959,35.86
0.0719238,199.264,36
0.072168,200.456,36.14
0.0724609,201.76,36.28
0.0727051,203.079,36.42
0.072998,204.603,36.56
0.073291,206.625,36.7
0.0736328,208.364,36.84
0.0739258,210.144,36.98
0.0742187,211.674,37.12
0.0745117,213.535,37.26
0.0748047,215.33,37.4
0.0750977,216.804,37.54
0.07543945,218.5,37.68
0.0756836,220.006,37.82
0.0759766,221.406,37.96
0.0762695,223.371,38.1
0.0765137,225.05,38.24
0.0768066,226.491,38.38
0.0770996,228.01,38.52
0.07734375,229.549,38.66
0.0776367,230.84,38.8
0.0778809,232.528,38.94
0.078125,233.556,39.08
0.078418,235.079,39.22
0.0786621,236.521,39.36
0.0789551,238.003,39.5
0.0791992,239.841,39.64
0.0794922,241.382,39.78
0.0797852,243.087,39.92
0.0800781,244.427,40.06
0.0803711,246.091,40.2
0.08066406,247.712,40.34
0.0810059,249.409,40.48
0.0812988,250.915,40.62
0.081543,252.236,40.76
0.08183594,253.582,40.9
0.0821289,255.2,41.04
0.0824219,256.49,41.18
0.082666,257.876,41.32
0.082959,259.553,41.46
0.083252,260.555,41.6
0.0834961,261.836,41.74
0.0837402,262.853,41.88
0.0840332,263.852,42.02
0.0842773,264.874,42.16
0.0845703,265.431,42.3
0.0848145,266.455,42.44
0.0851074,267.411,42.58
0.0853516,267.901,42.72
0.0855957,269.031,42.86
0.0858887,269.796,43
0.0861328,270.579,43.14
0.0864258,271.794,43.28
0.0867676,272.527,43.42
0.0870605,273.168,43.56
0.0874023,273.932,43.7
0.0876953,274.235,43.84
0.0879883,273.526,43.98
0.0882813,273.469,44.12
0.0885742,273.607,44.26
0.0888672,274.018,44.4
0.0891602,274.571,44.54
0.0894043,275.039,44.68
0.0896973,276.008,44.82
0.0899902,276.811,44.96
0.0902832,277.79,45.1
0.0905273,278.309,45.24
0.0907715,278.892,45.38
0.0910645,279.055,45.52
0.0913574,278.947,45.66
0.0916016,231.999,45.8
0.0918457,228.014,45.94
0.0921387,225.57,46.08
0.0923828,225.063,46.22
0.0926758,224.939,46.36
0.0929688,225.168,46.5
0.0932617,225.492,46.64
0.0936035,226.293,46.78
0.0938965,227.058,46.92
0.0941895,227.602,47.06
0.0944824,228.024,47.2
0.0947754,228.898,47.34
0.0950195,228.974,47.48
0.0953125,229.614,47.62
0.0956055,230.034,47.76
0.0958984,230.538,47.9
0.0961914,231.244,48.04
0.0964844,231.671,48.18
0.0967285,232.064,48.32
0.0969727,232.53,48.46
0.0972656,232.7,48.6
0.0975098,233.118,48.74
0.0977539,232.944,48.88
0.0980469,232.796,49.02
0.098291,232.911,49.16
0.0985352,232.815,49.3
0.0988281,233.242,49.44
0.0990723,233.261,49.58
0.0993652,233.277,49.72
0.0996582,232.695,49.86
0.0999512,231.527,50
0.100244,231.207,50.14
0.100537,231.038,50.28
0.10083,230.767,50.42
0.101123,230.841,50.56
0.101416,230.659,50.7
0.101709,230.486,50.84
0.102002,230.471,50.98
0.102246,230.248,51.12
0.102539,230.217,51.26
0.102832,230.093,51.4
0.103076,229.86,51.54
0.103369,230.152,51.68
0.103613,230.121,51.82
0.103906,230.392,51.96
0.10415,230.446,52.1
0.104443,229.838,52.24
0.104687,229.588,52.38
0.104932,229.006,52.52
0.105225,228.683,52.66
0.105469,228.771,52.8
0.105762,228.34,52.94
0.106055,228.522,53.08
0.106299,228.372,53.22
0.106641,228.571,53.36
0.106934,228.762,53.5
0.107227,228.614,53.64
0.10752,228.779,53.78
0.107861,228.43,53.92
0.108154,227.467,54.06
0.108447,227.186,54.2
0.10874,226.131,54.34
0.109033,225.646,54.48
0.109326,225.188,54.62
0.109619,224.921,54.76
0.109863,225.045,54.9
0.110156,224.746,55.04
0.1104,224.421,55.18
0.110693,224.173,55.32
0.110938,223.939,55.46
0.11123,223.924,55.6
0.111475,223.908,55.74
0.111719,223.627,55.88
0.112012,223.399,56.02
0.112256,223.125,56.16
0.112549,222.735,56.3
0.112842,222.339,56.44
0.113135,222.037,56.58
0.113379,221.997,56.72
0.1137207,221.488,56.86
0.114014,221.141,57
0.114307,220.122,57.14
0.1146,218.737,57.28
0.114893,217.978,57.42
0.115186,217.159,57.56
0.11543,216.42,57.7
0.115723,216.024,57.84
0.116016,215.25,57.98
0.116309,214.802,58.12
0.116553,213.98,58.26
0.116846,213.147,58.4
0.11709,212.753,58.54
0.117383,212.011,58.68
0.117627,211.39,58.82
0.11792,211.041,58.96
0.118164,210.477,59.1
0.118408,210.248,59.24
0.118701,209.727,59.38
0.118945,209.355,59.52
0.119238,208.746,59.66
0.119531,207.877,59.8
0.119824,206.87,59.94
0.120117,205.671,60.08
0.12041,204.117,60.22
0.120703,203.041,60.36
0.120996,201.645,60.5
0.121289,200.261,60.64
0.121582,199.288,60.78
0.121875,198.147,60.92
0.122168,197.647,61.06
0.122461,196.83,61.2
0.122754,195.998,61.34
0.122998,195.136,61.48
0.123291,194.255,61.62
0.123584,190.638,61.76
0.123828,188.572,61.9
0.124121,186.849,62.04
0.124365,186.11,62.18
0.124658,185.022,62.32
0.124902,184.343,62.46
0.125146,183.743,62.6
0.125439,182.926,62.74
0.125684,182.456,62.88
0.125977,181.649,63.02
0.12627,180.865,63.16
0.126563,180.362,63.3
0.126855,179.719,63.44
0.127148,179.178,63.58
0.12749,178.517,63.72
0.127734,177.736,63.86
0.128027,177.066,64
0.128369,176,64.14
0.128662,174.786,64.28
0.128906,173.764,64.42
0.129199,172.769,64.56
0.129443,172.344,64.7
0.129736,171.553,64.84
0.130029,170.913,64.98
0.130322,170.423,65.12
0.130566,169.578,65.26
0.130811,169.035,65.4
0.131104,168.537,65.54
0.131348,167.909,65.68
0.131592,167.445,65.82
0.131885,166.805,65.96
0.132129,166.117,66.1
0.132373,165.544,66.24
0.132666,164.666,66.38
0.132959,164.238,66.52
0.133252,163.513,66.66
0.133545,162.66,66.8
0.133838,162.132,66.94
0.134131,161.146,67.08
0.134424,160.037,67.22
0.1347168,158.868,67.36
0.13501,157.564,67.5
0.135303,154.546,67.64
0.135596,152.003,67.78
0.13584,150.379,67.92
0.136133,149.163,68.06
0.136426,147.994,68.2
0.136719,147.32,68.34
0.136963,146.653,68.48
0.137256,146.047,68.62
0.1375,145.518,68.76
0.137793,144.97,68.9
0.138037,144.496,69.04
0.138281,143.993,69.18
0.138574,143.27,69.32
0.138818,142.913,69.46
0.139111,142.389,69.6
0.139355,141.846,69.74
0.139697,141.592,69.88
0.139941,140.915,70.02
0.140283,140.599,70.16
0.140576,140.047,70.3
0.140869,139.337,70.44
0.141162,138.956,70.58
0.141455,138.108,70.72
0.141748,137.449,70.86
0.142041,136.889,71
0.142334,136.151,71.14
0.142627,135.612,71.28
0.14292,134.998,71.42
0.143164,134.228,71.56
0.143457,133.721,71.7
0.14375,132.949,71.84
0.143994,132.559,71.98
0.144238,131.898,72.12
0.144531,131.323,72.26
0.144775,130.973,72.4
0.145068,130.349,72.54
0.145313,129.954,72.68
0.145557,129.625,72.82
0.14585,129.199,72.96
0.146094,129.136,73.1
0.146387,128.535,73.24
0.14668,128.217,73.38
0.147021,127.998,73.52
0.147314,127.375,73.66
0.147607,127.087,73.8
0.1479,126.662,73.94
0.148193,126.113,74.08
0.148486,125.657,74.22
0.148779,125.182,74.36
0.149072,124.712,74.5
0.149365,124.353,74.64
0.149609,123.718,74.78
0.149902,123.358,74.92
0.150146,122.837,75.06
0.150439,122.343,75.2
0.150684,122.066,75.34
0.150977,121.497,75.48
0.151221,121.188,75.62
0.151514,120.81,75.76
0.151758,120.438,75.9
0.152002,120.07,76.04
0.152295,119.495,76.18
0.152539,119.357,76.32
0.152832,118.961,76.46
0.153125,118.481,76.6
0.153418,118.388,76.74
0.15376,117.792,76.88
0.154053,116.754,77.02
0.154346,116.059,77.16
0.154639,115.141,77.3
0.154932,114.564,77.44
0.155225,113.856,77.58
0.155518,113.248,77.72
0.155811,112.886,77.86
0.156104,112.36,78
0.156348,111.993,78.14
0.156641,111.478,78.28
0.156934,110.981,78.42
0.157178,110.654,78.56
0.157422,110.324,78.7
0.157715,109.864,78.84
0.157959,109.641,78.98
0.158252,109.172,79.12
0.158496,108.888,79.26
0.15874,108.59,79.4
0.159033,108.154,79.54
0.159326,107.965,79.68
0.15957,107.473,79.82
0.159863,107.148,79.96
0.160156,106.829,80.1
0.160498,106.372,80.24
0.160791,105.919,80.38
0.161084,105.299,80.52
0.161377,104.711,80.66
0.16167,104.29,80.8
0.161914,103.621,80.94
0.162207,103.315,81.08
0.1625,102.864,81.22
0.162793,102.251,81.36
0.163037,101.969,81.5
0.16333,101.414,81.64
0.163574,101.121,81.78
0.163818,100.797,81.92
0.164111,100.289,82.06
0.164355,100.071,82.2
0.164648,99.6992,82.34
0.164893,99.3571,82.48
0.165186,99.1486,82.62
0.16543,98.5957,82.76
0.165723,98.2778,82.9
0.165967,98.0844,83.04
0.16626,97.6212,83.18
0.166553,97.4441,83.32
0.166846,96.9107,83.46
0.167139,96.587,83.6
0.167432,95.9891,83.74
0.167725,95.3599,83.88
0.168018,94.9148,84.02
0.168311,94.4261,84.16
0.168604,94.0102,84.3
0.168896,93.5371,84.44
0.169189,92.9619,84.58
0.169434,92.4797,84.72
0.169727,91.5805,84.86
0.17002,90.9336,85
0.170264,90.5289,85.14
0.170557,89.7896,85.28
0.17085,89.3119,85.42
0.171094,88.8984,85.56
0.171338,88.2996,85.7
0.171631,87.9326,85.84
0.171875,87.441,85.98
0.172168,87.0026,86.12
0.172412,86.5973,86.26
0.172705,86.0661,86.4
0.172998,85.7543,86.54
0.173291,85.1862,86.68
0.173584,84.6039,86.82
0.173877,84.2394,86.96
0.174219,83.6416,87.1
0.174512,83.1571,87.24
0.174805,82.4831,87.38
0.175098,81.8015,87.52
0.175391,81.4418,87.66
0.175635,80.7292,87.8
0.175928,80.1559,87.94
0.176221,79.7295,88.08
0.176514,78.9917,88.22
0.176758,78.4592,88.36
0.177051,77.9192,88.5
0.177295,77.2981,88.64
0.177588,76.85,88.78
0.177832,76.1993,88.92
0.178076,75.7611,89.06
0.178369,75.2841,89.2
0.178613,74.5781,89.34
0.178906,74.3389,89.48
0.17915,73.7712,89.62
0.179443,73.3356,89.76
0.179736,73.0858,89.9
0.180029,72.3689,90.04
0.180322,71.6192,90.18
0.180615,70.8191,90.32
0.180908,69.4983,90.46
0.18125,68.8283,90.6
0.181543,68.0163,90.74
0.181836,67.4856,90.88
0.18208,66.9102,91.02
0.182373,66.2815,91.16
0.182666,65.8984,91.3
0.18291,65.4808,91.44
0.183203,65.0817,91.58
0.1834961,64.7479,91.72
0.18374,64.2816,91.86
0.184033,64.0627,92
0.184277,63.7712,92.14
0.184521,63.4469,92.28
0.184814,63.1978,92.42
0.185059,62.8448,92.56
0.185303,62.5868,92.7
0.185596,62.4235,92.84
0.185889,62.0014,92.98
0.186182,61.9499,93.12
0.186426,61.5728,93.26
0.186719,61.3357,93.4
0.187012,61.1233,93.54
0.187354,60.8673,93.68
0.187646,60.5287,93.82
0.187939,60.3804,93.96
0.188232,60.0396,94.1
0.188525,59.9242,94.24
0.188818,59.5947,94.38
0.189111,59.3232,94.52
0.189404,59.1333,94.66
0.189697,58.8339,94.8
0.189941,58.729,94.94
0.190234,58.3606,95.08
0.190479,58.2346,95.22
0.190771,58.0903,95.36
0.191016,57.6918,95.5
0.191309,57.5304,95.64
0.191553,57.2236,95.78
0.191797,57.0387,95.92
0.19209,57.0362,96.06
0.192334,56.6053,96.2
0.192627,56.5568,96.34
0.19292,56.3505,96.48
0.193213,56.0394,96.62
0.193506,56.0493,96.76
0.193799,55.7552,96.9
0.194092,55.6234,97.04
0.194385,55.4633,97.18
0.194678,55.1971,97.32
0.194971,55.02388,97.46
0.195264,54.8787,97.6
0.195557,54.6996,97.74
0.19585,54.5372,97.88
0.196094,54.271,98.02
0.196387,54.0857,98.16
0.196631,53.9748,98.3
0.196924,53.6947,98.44
0.197217,53.6345,98.58
0.197461,53.3265,98.72
0.197705,53.2568,98.86
0.197998,53.0269,99
0.198242,52.7879,99.14
0.198486,52.7167,99.28
0.19873,52.6374,99.42
0.199023,52.3361,99.56
0.199316,52.3431,99.7
0.199561,52.1387,99.84
0.199854,52.1718,99.98
0.200146,51.8885,100.12
0.200488,51.6845,100.26
0.200781,51.6956,100.4
0.201074,51.4263,100.54
0.201367,51.3395,100.68
0.20166,51.2927,100.82
0.201904,50.8727,100.96
0.202197,50.9042,101.1
0.20249,50.7302,101.24
0.202783,50.4704,101.38
0.203027,50.5695,101.52
0.20332,50.287,101.66
0.203613,50.1706,101.8
0.203857,50.2109,101.94
0.204102,49.7762,102.08
0.204395,49.9681,102.22
0.204639,49.7163,102.36
0.204883,49.5098,102.5
0.205176,49.6209,102.64
0.205469,49.4015,102.78
0.205713,49.2677,102.92
0.205957,49.1483,103.06
0.206299,49.0928,103.2
0.206592,49.1249,103.34
0.206885,48.7964,103.48
0.207178,48.842,103.62
0.207471,48.7199,103.76
0.207764,48.5176,103.9
0.208057,48.529,104.04
0.208398,48.2775,104.18
0.208691,48.1245,104.32
0.208984,48.1283,104.46
0.209277,47.831,104.6
0.209521,47.9916,104.74
0.209814,47.7353,104.88
0.210059,47.6149,105.02
0.210352,47.7497,105.16
0.210645,47.4077,105.3
0.210889,47.3596,105.44
0.211182,47.3743,105.58
0.211426,47.175,105.72
0.21167,47.1366,105.86
0.211963,46.9859,106
0.212207,46.8914,106.14
0.212451,46.8657,106.28
0.212793,46.7117,106.42
0.213086,46.7395,106.56
0.213379,46.5918,106.7
0.213672,46.4524,106.84
0.213965,46.6021,106.98
0.214307,46.4005,107.12
0.214551,46.3444,107.26
0.214844,46.2431,107.4
0.215137,46.1105,107.54
0.21543,46.2599,107.68
0.215674,45.9448,107.82
0.215967,45.9646,107.96
0.21626,46.0143,108.1
0.216553,45.666,108.24
0.216846,45.8029,108.38
0.21709,45.7015,108.52
0.217383,45.5762,108.66
0.217627,45.6577,108.8
0.2178711,45.4096,108.94
0.218115,45.4375,109.08
0.218408,45.3608,109.22
0.218652,45.2535,109.36
0.218945,45.3552,109.5
0.219238,45.2311,109.64
0.219482,45.1773,109.78
0.219775,45.2116,109.92
0.220068,45.0126,110.06
0.220361,45.1689,110.2
0.220654,45.053,110.34
0.220996,44.8414,110.48
0.22124,44.9607,110.62
0.221533,44.7467,110.76
0.221875,44.739,110.9
0.222168,44.6836,111.04
0.222412,44.4966,111.18
0.222705,44.5475,111.32
0.222998,44.4998,111.46
0.223291,44.4977,111.6
0.223535,44.3739,111.74
0.223828,44.1099,111.88
0.224072,44.245,112.02
0.224316,44.1686,112.16
0.224609,44.0655,112.3
0.224854,44.1368,112.44
0.225098,43.9455,112.58
0.225391,43.9569,112.72
0.225635,43.9094,112.86
0.225928,43.7654,113
0.226221,43.9387,113.14
0.226514,43.7591,113.28
0.226807,43.7667,113.42
0.2271,43.8261,113.56
0.227393,43.6033,113.7
0.227686,43.7028,113.84
0.228027,43.6119,113.98
0.22832,43.5446,114.12
0.228564,43.5179,114.26
0.228906,43.3896,114.4
0.22915,43.4324,114.54
0.229443,43.2941,114.68
0.229688,43.1763,114.82
0.22998,43.3288,114.96
0.230273,43.0726,115.1
0.230518,43.0505,115.24
0.230811,43.0748,115.38
0.231055,42.9151,115.52
0.231299,43.077,115.66
0.231592,42.9182,115.8
0.231836,42.926,115.94
0.23208,42.9218,116.08
0.232373,42.6911,116.22
0.232666,42.8477,116.36
0.23291,42.7246,116.5
0.233203,42.564,116.64
0.233496,42.7648,116.78
0.233789,42.6015,116.92
0.234082,42.5987,117.06
0.234424,42.6651,117.2
0.234668,42.5037,117.34
0.234961,42.6496,117.48
0.235254,42.5381,117.62
0.235547,42.4545,117.76
0.23584,42.4982,117.9
0.236084,42.3704,118.04
0.236377,42.4246,118.18
0.23667,42.4624,118.32
0.236914,42.3691,118.46
0.237207,42.4063,118.6
0.237451,42.1734,118.74
0.237744,42.2145,118.88
0.237988,42.1489,119.02
0.238232,42.1109,119.16
0.238525,42.2751,119.3
0.23877,42.0978,119.44
0.239063,42.0572,119.58
0.239307,42.2299,119.72
0.2396,41.9773,119.86
0.239893,42.0916,120
0.240186,42.082,120.14
0.240527,42.0148,120.28
0.24082,42.132,120.42
0.241113,41.8372,120.56
0.241406,41.956,120.7
0.241699,41.8672,120.84
0.241992,41.795,120.98
0.242285,41.926,121.12
0.242529,41.7621,121.26
0.242822,41.6641,121.4
0.243115,41.8643,121.54
0.243408,41.5936,121.68
0.243652,41.653,121.82
0.243896,41.5842,121.96
0.244189,41.5741,122.1
0.244434,41.6962,122.24
0.244727,41.4724,122.38
0.244971,41.542,122.52
0.245264,41.5452,122.66
0.245508,41.4209,122.8
0.245801,41.523,122.94
0.246045,41.3123,123.08
0.246387,41.3617,123.22
0.246631,41.3559,123.36
0.246973,41.2846,123.5
0.247266,41.3737,123.64
0.247559,41.258,123.78
0.247852,41.3089,123.92
0.248193,41.3679,124.06
0.248486,41.1864,124.2
0.24873,41.2848,124.34
0.249023,41.2497,124.48
0.249316,41.1258,124.62
0.249609,41.2739,124.76
0.249854,41.1342,124.9
0.250146,41.1333,125.04
0.250439,41.1969,125.18
0.250684,41.0017,125.32
0.250928,41.1549,125.46
0.251221,41.0551,125.6
0.251465,41.0262,125.74
0.251709,41.0278,125.88
0.252002,40.9305,126.02
0.2522461,41.0234,126.16
0.252539,41.0371,126.3
0.252832,40.9736,126.44
0.253125,41.0465,126.58
0.253418,40.8253,126.72
0.253711,40.9197,126.86
0.254004,40.9855,127
0.254297,40.8975,127.14
0.25459,40.994,127.28
0.254883,40.8379,127.42
0.255176,40.903,127.56
0.255469,40.8915,127.7
0.255713,40.6445,127.84
0.256006,40.8687,127.98
0.256299,40.7701,128.12
0.256592,40.7397,128.26
0.256885,40.9011,128.4
0.257129,40.7821,128.54
0.257422,40.8286,128.68
0.257666,40.7831,128.82
0.25791,40.5146,128.96
0.258203,40.7399,129.1
0.258447,40.5625,129.24
0.25874,40.6252,129.38
0.258984,40.746,129.52
0.259277,40.609,129.66
0.259521,40.652,129.8
0.259863,40.5876,129.94
0.260156,40.5729,130.08
0.260449,40.5914,130.22
0.260742,40.5804,130.36
0.261035,40.6356,130.5
0.261377,40.6253,130.64
0.261621,40.5365,130.78
0.261914,40.6558,130.92
0.262207,40.4919,131.06
0.2625,40.5848,131.2
0.262793,40.547,131.34
0.263037,40.4445,131.48
0.26333,40.5935,131.62
0.263574,40.3377,131.76
0.263867,40.4808,131.9
0.264111,40.5238,132.04
0.264355,40.3549,132.18
0.264648,40.4108,132.32
0.264893,40.2865,132.46
0.265137,40.3001,132.6
0.26543,40.38,132.74
0.265674,40.2008,132.88
0.265918,40.2847,133.02
0.266211,40.281,133.16
0.266504,40.1671,133.3
0.266797,40.3492,133.44
0.26709,40.1985,133.58
0.267432,40.1462,133.72
0.267725,40.1495,133.86
0.268018,40.0537,134
0.268311,40.1373,134.14
0.268604,40.1245,134.28
0.268896,40.0993,134.42
0.269141,40.1152,134.56
0.2694336,39.9288,134.7
0.269678,40.1208,134.84
0.269971,39.9618,134.98
0.270264,39.9194,135.12
0.270508,40.0517,135.26
0.270801,39.8659,135.4
0.271045,39.9997,135.54
0.271289,40.0393,135.68
0.271582,39.829,135.82
0.271826,40.0868,135.96
0.27207,39.8657,136.1
0.272363,39.8397,136.24
0.272656,39.9096,136.38
0.272949,39.7091,136.52
0.273242,39.8678,136.66
0.273535,39.8299,136.8
0.273828,39.8108,136.94
0.27417,39.8398,137.08
0.274414,39.6552,137.22
0.274707,39.7639,137.36
0.275049,39.7528,137.5
0.275342,39.755,137.64
0.275635,39.7589,137.78
0.275879,39.6715,137.92
0.276172,39.6855,138.06
0.276465,39.6598,138.2
0.276758,39.5397,138.34
0.277002,39.7156,138.48
0.277295,39.4815,138.62
0.277539,39.5488,138.76
0.277832,39.6722,138.9
0.278076,39.345,139.04
0.27832,39.6331,139.18
0.278564,39.4625,139.32
0.278857,39.3756,139.46
0.27915,39.5032,139.6
0.279395,39.2851,139.74
0.279736,39.4439,139.88
0.27998,39.444,140.02
0.280273,39.2469,140.16
0.280566,39.4547,140.3
0.280859,39.3307,140.44
0.281201,39.3089,140.58
0.281494,39.2867,140.72
0.281787,39.1272,140.86
0.282031,39.1665,141
0.282324,39.2088,141.14
0.282617,39.1529,141.28
0.282861,39.1679,141.42
0.283154,39.0572,141.56
0.283447,39.118,141.7
0.283691,39.0452,141.84
0.283984,39.0713,141.98
0.284229,39.1778,142.12
0.284521,39.0605,142.26
0.284766,39.0812,142.4
0.28501,38.9486,142.54
0.285254,38.9095,142.68
0.285547,39.0564,142.82
0.285791,38.9711,142.96
0.286084,38.9093,143.1
0.286377,38.9691,143.24
0.28667,38.7871,143.38
0.286963,39.0059,143.52
0.287305,38.9565,143.66
0.287598,38.8303,143.8
0.287891,38.9165,143.94
0.288184,38.7244,144.08
0.288477,38.8183,144.22
0.28877,38.7681,144.36
0.289063,38.6895,144.5
0.289355,38.7525,144.64
0.289648,38.581,144.78
0.289893,38.6637,144.92
0.290186,38.5775,145.06
0.29043,38.5824,145.2
0.290723,38.6318,145.34
0.290967,38.5283,145.48
0.29126,38.6103,145.62
0.291504,38.6467,145.76
0.291748,38.3868,145.9
0.292041,38.5196,146.04
0.292334,38.4701,146.18
0.292627,38.4678,146.32
0.292871,38.5743,146.46
0.293164,38.4245,146.6
0.293457,38.5616,146.74
0.293799,38.5122,146.88
0.294092,38.3717,147.02
0.294385,38.5941,147.16
0.294678,38.4765,147.3
0.294971,38.3802,147.44
0.295215,38.4955,147.58
0.295508,38.2992,147.72
0.295801,38.5156,147.86
0.296094,38.3706,148
0.296387,38.2749,148.14
0.296631,38.0054,148.28
0.296924,37.9229,148.42
0.297168,37.9389,148.56
0.297461,37.877,148.7
0.297705,37.8374,148.84
0.297949,37.8932,148.98
0.298193,37.7932,149.12
0.298486,37.8117,149.26
0.29873,37.849,149.4
0.299023,37.7823,149.54
0.299268,37.8586,149.68
0.299561,37.7368,149.82
0.299854,37.8135,149.96
0.300146,37.854,150.1
0.300439,37.6875,150.24
0.300732,37.8418,150.38
0.3010254,37.7748,150.52
0.301318,37.7033,150.66
0.301611,37.7896,150.8
0.301904,37.7259,150.94
0.302197,37.793,151.08
0.302441,37.7043,151.22
0.302734,37.6177,151.36
0.303027,37.8102,151.5
0.30332,37.6035,151.64
0.303564,37.5838,151.78
0.303857,37.5694,151.92
0.304102,37.4622,152.06
0.304346,37.5922,152.2
0.304639,37.518,152.34
0.304883,37.5312,152.48
0.305127,37.5825,152.62
0.305371,37.4207,152.76
0.305664,37.5615,152.9
0.305957,37.5418,153.04
0.30625,37.4724,153.18
0.306543,37.5305,153.32
0.306836,37.53,153.46
0.307129,37.5294,153.6
0.307471,37.5245,153.74
0.307764,37.4862,153.88
0.308057,37.6739,154.02
0.30835,37.4745,154.16
0.308643,37.5274,154.3
0.308936,37.5924,154.44
0.309229,37.3458,154.58
0.309521,37.4886,154.72
0.309814,37.4993,154.86
0.310059,37.3108,155
0.310303,37.0413,155.14
0.3105957,36.7895,155.28
0.310889,36.9443,155.42
0.311133,36.873,155.56
0.311426,36.8675,155.7
0.31167,37.0319,155.84
0.311914,36.8698,155.98
0.312207,36.7869,156.12
0.312451,36.9532,156.26
0.312744,36.8208,156.4
0.313037,36.9283,156.54
0.31333,36.8642,156.68
0.313623,36.8963,156.82
0.313916,36.9478,156.96
0.314209,36.8201,157.1
0.314502,36.9553,157.24
0.314795,36.8014,157.38
0.315088,36.9115,157.52
0.315381,36.9772,157.66
0.315674,36.7977,157.8
0.315967,36.9484,157.94
0.316211,36.8699,158.08
0.316504,36.7546,158.22
0.316748,36.9403,158.36
0.317041,36.7721,158.5
0.317285,36.8474,158.64
0.317578,36.8817,158.78
0.317822,36.7697,158.92
0.318066,36.9294,159.06
0.318311,36.7697,159.2
0.318604,36.878,159.34
0.318848,36.8884,159.48
0.319141,36.7684,159.62
0.319434,36.8596,159.76
0.319727,36.7914,159.9
0.32002,36.8028,160.04
0.320313,36.9876,160.18
0.320605,36.8719,160.32
0.320947,36.8889,160.46
0.321191,36.8289,160.6
0.321533,36.844,160.74
0.321826,36.9535,160.88
0.322119,36.8893,161.02
0.322363,36.9468,161.16
0.322656,36.9492,161.3
0.322949,36.7544,161.44
0.323193,36.9278,161.58
0.323486,36.9222,161.72
0.323779,36.84,161.86
0.324023,37.0516,162
0.324316,36.8343,162.14
0.324561,36.9847,162.28
0.324805,36.9584,162.42
0.325098,36.7842,162.56
0.325342,37.0598,162.7
0.325635,36.8817,162.84
0.325879,36.8874,162.98
0.326172,36.9916,163.12
0.326465,36.8084,163.26
0.326758,36.9988,163.4
0.327051,37.011,163.54
0.327393,36.9419,163.68
0.327686,37.0247,163.82
0.327979,36.8582,163.96
0.328271,36.9449,164.1
0.328564,36.9318,164.24
0.328809,36.9319,164.38
0.329102,37.0106,164.52
0.329395,36.9345,164.66
0.329687,37.0234,164.8
0.329932,36.9803,164.94
0.330225,36.9316,165.08
0.330469,37.0301,165.22
0.330762,36.8776,165.36
0.331006,36.9116,165.5
0.33125,36.9549,165.64
0.331543,36.8584,165.78
0.331787,36.3741,165.92
0.332031,36.331,166.06
0.332324,36.2913,166.2
0.332568,36.4098,166.34
0.332861,36.2943,166.48
0.333154,36.3302,166.62
0.333447,36.3995,166.76
0.33374,36.2803,166.9
0.334033,36.5165,167.04
0.334375,36.349,167.18
0.334668,36.4472,167.32
0.334961,36.5021,167.46
0.335205,36.4585,167.6
0.335498,36.4694,167.74
0.335791,36.5207,167.88
0.336084,36.5161,168.02
0.336328,36.5103,168.16
0.336621,36.4529,168.3
0.336865,36.511,168.44
0.337158,36.4712,168.58
0.337402,36.5196,168.72
0.337695,36.5985,168.86
0.337939,36.4394,169
0.338232,36.5729,169.14
0.338477,36.5441,169.28
0.33877,36.5687,169.42
0.339014,36.6029,169.56
0.339307,36.4771,169.7
0.339551,36.5604,169.84
0.339893,36.5881,169.98
0.340186,36.5259,170.12
0.340479,36.704,170.26
0.340771,36.585,170.4
0.341064,36.585,170.54
0.341406,36.771,170.68
0.341699,36.5564,170.82
0.341943,36.6942,170.96
0.342236,36.7254,171.1
0.342529,36.7463,171.24
0.342822,36.8441,171.38
0.343115,36.6296,171.52
0.343359,36.739,171.66
0.343652,36.6519,171.8
0.343896,36.7162,171.94
0.344189,36.7666,172.08
0.344434,36.682,172.22
0.344678,36.8132,172.36
0.3449707,36.808,172.5
0.345215,36.6966,172.64
0.345508,36.9135,172.78
0.345752,36.7412,172.92
0.346045,36.8491,173.06
0.346338,36.8698,173.2
0.346582,36.7324,173.34
0.346924,36.8958,173.48
0.347217,36.8217,173.62
0.34751,36.768,173.76
0.347803,36.978,173.9
0.348145,36.851,174.04
0.348389,36.9559,174.18
0.348682,36.9179,174.32
0.348975,36.8045,174.46
0.349268,36.9741,174.6
0.349512,36.8182,174.74
0.349805,36.9713,174.88
0.350098,36.916,175.02
0.350342,36.8556,175.16
0.350635,37.0676,175.3
0.350879,36.9352,175.44
0.351123,36.9086,175.58
0.351416,36.9588,175.72
0.35166,36.7938,175.86
0.351904,37.04,176
0.352197,36.963,176.14
0.35249,36.9545,176.28
0.352734,37.1036,176.42
0.353027,36.9391,176.56
0.35332,37.0499,176.7
0.353662,37.1018,176.84
0.353955,36.9137,176.98
0.354248,37.1646,177.12
0.354541,36.997,177.26
0.354834,37.0188,177.4
0.355127,37.1289,177.54
0.35542,36.9535,177.68
0.355713,37.1107,177.82
0.355957,37.0371,177.96
0.35625,37.0446,178.1
0.356543,37.1404,178.24
0.356836,36.9222,178.38
0.357129,37.0088,178.52
0.357373,37.0229,178.66
0.357617,37.0881,178.8
0.35791,37.1327,178.94
0.358154,37.1148,179.08
0.358398,37.1786,179.22
0.358691,37.0515,179.36
0.358936,37.0507,179.5
0.359229,37.2042,179.64
0.359521,37.106,179.78
0.359814,37.0823,179.92
0.360107,37.1076,180.06
0.3604,37.083,180.2
0.360693,37.2278,180.34
0.360986,37.1265,180.48
0.361279,37.1964,180.62
0.361572,37.317,180.76
0.361865,36.9967,180.9
0.3621582,37.1666,181.04
0.362402,36.5724,181.18
0.362695,36.4454,181.32
0.362988,36.4877,181.46
0.363232,36.3761,181.6
0.363525,36.3743,181.74
0.36377,36.5032,181.88
0.364062,36.3268,182.02
0.364307,36.5123,182.16
0.364551,36.4805,182.3
0.364844,36.5214,182.44
0.365088,36.4771,182.58
0.365332,36.4161,182.72
0.365625,36.5141,182.86
0.365869,36.4526,183
0.366162,36.5457,183.14
0.366455,36.5862,183.28
0.366748,36.4853,183.42
0.367041,36.6024,183.56
0.367334,36.5582,183.7
0.367676,36.6216,183.84
0.36792,36.6547,183.98
0.368213,36.5244,184.12
0.368555,36.667,184.26
0.368848,36.6932,184.4
0.369092,36.644,184.54
0.369385,36.6922,184.68
0.369678,36.6392,184.82
0.369922,36.6701,184.96
0.370215,36.6745,185.1
0.370459,36.5114,185.24
0.370752,36.7315,185.38
0.370996,36.7294,185.52
0.37124,36.696,185.66
0.371533,36.7762,185.8
0.371777,36.6513,185.94
0.37207,36.7277,186.08
0.372314,36.7858,186.22
0.372607,36.7358,186.36
0.3729,36.8677,186.5
0.373193,36.7259,186.64
0.373486,36.8206,186.78
0.373828,36.7956,186.92
0.374121,36.7918,187.06
0.374414,36.8731,187.2
0.374707,36.8265,187.34
0.375,36.9433,187.48
0.375293,36.9415,187.62
0.375586,36.676,187.76
0.375879,37.0051,187.9
0.376123,36.8901,188.04
0.376416,36.9178,188.18
0.376709,36.9349,188.32
0.376953,36.6938,188.46
0.377246,36.8623,188.6
0.37749,36.8495,188.74
0.377783,36.8846,188.88
0.378027,36.9781,189.02
0.378271,36.7763,189.16
0.378564,36.9538,189.3
0.378809,36.918,189.44
0.379102,36.8117,189.58
0.3793457,37.0669,189.72
0.379639,37.0012,189.86
0.379932,36.9373,190
0.380225,36.9546,190.14
0.380566,36.9336,190.28
0.380859,37.0635,190.42
0.381152,36.9642,190.56
0.381445,36.9855,190.7
0.381738,37.0237,190.84
0.381982,36.9494,190.98
0.382275,37.0809,191.12
0.382568,36.9584,191.26
0.382861,37.0371,191.4
0.383154,37.156,191.54
0.383398,36.8895,191.68
0.383691,37.0981,191.82
0.383936,37.1286,191.96
0.38418,37.011,192.1
0.384473,37.1464,192.24
0.384717,37.0243,192.38
0.384961,37.0097,192.52
0.385254,37.1143,192.66
0.385547,36.9482,192.8
0.385791,37.1822,192.94
0.386084,37.0356,193.08
0.386377,37.096,193.22
0.38667,37.1664,193.36
0.3869629,36.9619,193.5
0.387256,37.2118,193.64
0.387549,37.11,193.78
0.387842,37.1142,193.92
0.388184,37.157,194.06
0.388428,37.1149,194.2
0.38877,37.193,194.34
0.389063,37.1781,194.48
0.389307,37.1795,194.62
0.389648,37.3276,194.76
0.389893,37.0165,194.9
0.390137,37.1579,195.04
0.39043,37.1701,195.18
0.390723,37.0652,195.32
0.390967,37.1833,195.46
0.391211,37.1385,195.6
0.391455,37.0695,195.74
0.391748,37.1994,195.88
0.391992,36.9941,196.02
0.392285,37.1907,196.16
0.392529,37.1185,196.3
0.392822,37.074,196.44
0.393115,37.2295,196.58
0.393408,36.9504,196.72
0.393701,37.1059,196.86
0.393994,37.1479,197
0.394336,37.0746,197.14
0.394629,37.1855,197.28
0.394922,37.0583,197.42
0.395166,37.1713,197.56
0.395459,37.1503,197.7
0.395752,37.098,197.84
0.396045,37.1414,197.98
0.396289,36.9706,198.12
0.396484,1.35519,198.202