File: Data/Thesis_Samples_Data/Flexural_Rebar_2/Flexural_Rebar_2.csv
"File Path: C:\Users\Lab User\Desktop\Will\Thesis Tests\Test Run 2 04-8-22 21 47 52 PM\DAQ- Crosshead, … - (Timed).csv   ",,
Test: MTS EM Flexure (3-Point Bend) - Will 2,,
Test Run: Test Run 2,,
Date: 4/8/2022 9:18:36 PM,,
,,
,,
Crosshead ,Load ,Time
mm,N,sec
4.88E-05,2.35478,0.02
0.001904297,5.28759,1.18
0.003808594,8.47491,2.34
0.005761719,12.3363,3.5
0.007763672,16.3217,4.66
0.009667969,20.1828,5.82
0.0115234,23.7318,6.98
0.0135742,28.1926,8.14
0.0155273,32.2791,9.3
0.0174316,36.8981,10.46
0.0193848,41.7681,11.62
0.0213867,46.9053,12.78
0.0232422,51.6704,13.94
0.0250977,56.9476,15.1
0.0271484,62.6657,16.26
0.0291016,68.1736,17.42
0.0309082,73.4708,18.58
0.0329102,79.6038,19.74
0.0349121,85.5836,20.9
0.0367676,91.4584,22.06
0.0386719,97.5898,23.22
0.0406738,104.307,24.38
0.0425781,110.911,25.54
0.0444336,117.491,26.7
0.0464355,125.695,27.86
0.0484375,133.654,29.02
0.050293,141.283,30.18
0.0521973,150.509,31.34
0.0541992,161.423,32.5
0.0561035,171.93,33.66
0.057959,182.444,34.82
0.0600098,194.939,35.98
0.0619629,206.994,37.14
0.0638184,217.832,38.3
0.0657715,230.017,39.46
0.0677246,238.098,40.62
0.0696289,247.866,41.78
0.0714844,259.254,42.94
0.0734863,272.354,44.1
0.07543945,283.876,45.26
0.0772949,294.929,46.42
0.0792969,307.592,47.58
0.08125,319.92,48.74
0.0832031,319.766,49.9
0.0850098,329.289,51.06
0.0870605,342.536,52.22
0.0890137,354.9,53.38
0.0908203,366.55,54.54
0.0928223,379.515,55.7
0.0948242,376.856,56.86
0.0967285,385.984,58.02
0.098584,398.539,59.18
0.100635,411.936,60.34
0.102539,421.991,61.5
0.104346,432.719,62.66
0.106348,445.37,63.82
0.108301,457.867,64.98
0.110156,468.253,66.14
0.112061,474.029,67.3
0.114111,483.188,68.46
0.116016,492.065,69.62
0.11792,501.48,70.78
0.119922,513.012,71.94
0.121875,524.034,73.1
0.12373,533.919,74.26
0.125635,544.37,75.42
0.127686,555.658,76.58
0.12959,565.132,77.74
0.131445,574.386,78.9
0.133447,585.425,80.06
0.135449,593.735,81.22
0.137256,595.57,82.38
0.139209,575.945,83.54
0.141211,502.732,84.7
0.143066,493.232,85.86
0.144922,493.884,87.02
0.146973,497.669,88.18
0.148926,472.905,89.34
0.150781,470.962,90.5
0.152783,474.885,91.66
0.154736,478.35,92.82
0.156592,481.337,93.98
0.158496,483.521,95.14
0.160547,487.251,96.3
0.162451,495.034,97.46
0.164307,503.379,98.62
0.166357,513.057,99.78
0.168311,522.458,100.94
0.170166,530.674,102.1
0.172021,539.972,103.26
0.174023,549.555,104.42
0.175977,558.973,105.58
0.177832,568.27,106.74
0.179834,579.157,107.9
0.181836,588.807,109.06
0.183691,597.194,110.22
0.185596,606.444,111.38
0.187598,616.261,112.54
0.189502,624.88,113.7
0.191357,633.515,114.86
0.193359,643.233,116.02
0.195361,641.541,117.18
0.197217,648.576,118.34
0.19917,658.288,119.5
0.201172,667.443,120.66
0.203076,675.756,121.82
0.204883,683.832,122.98
0.206934,693.146,124.14
0.208838,701.25,125.3
0.210645,708.229,126.46
0.212646,712.015,127.62
0.214697,713.97,128.78
0.216553,714.919,129.94
0.218457,718.159,131.1
0.220459,723.008,132.26
0.222412,724.592,133.42
0.224219,724.106,134.58
0.226221,727.581,135.74
0.228223,731.77,136.9
0.230078,733.407,138.06
0.231982,729.571,139.22
0.234033,729.777,140.38
0.235938,731.359,141.54
0.237793,735.065,142.7
0.239746,737.348,143.86
0.241699,740.787,145.02
0.243604,746.123,146.18
0.245508,752.354,147.34
0.247559,756.963,148.5
0.249463,751.791,149.66
0.25127,751.626,150.82
0.25332,758.757,151.98
0.255273,756.493,153.14
0.257129,761.954,154.3
0.259082,768.286,155.46
0.261084,775.694,156.62
0.262988,782.39,157.78
0.264844,787.114,158.94
0.266895,787.689,160.1
0.268799,794.322,161.26
0.270654,800.103,162.42
0.272559,807.126,163.58
0.274609,814.27,164.74
0.276465,817.248,165.9
0.278369,822.717,167.06
0.28042,829.49,168.22
0.282373,835.186,169.38
0.28418,836.368,170.54
0.286182,842.28,171.7
0.288135,846.202,172.86
0.28999,829.839,174.02
0.291895,837.786,175.18
0.293945,846.305,176.34
0.295898,853.63,177.5
0.297705,860.098,178.66
0.299756,867.648,179.82
0.301709,874.292,180.98
0.303564,880.259,182.14
0.30542,886.468,183.3
0.307471,893.433,184.46
0.309326,899.148,185.62
0.311182,904.953,186.78
0.313232,911.779,187.94
0.315186,918.025,189.1
0.317041,923.066,190.26
0.319043,929.402,191.42
0.321045,932.773,192.58
0.322949,937.897,193.74
0.324756,943.327,194.9
0.326807,949.929,196.06
0.32876,955.495,197.22
0.330615,959.515,198.38
0.332568,960.405,199.54
0.33457,961.809,200.7
0.336475,965.096,201.86
0.338281,970.325,203.02
0.340283,976.958,204.18
0.342236,982.745,205.34
0.344092,988.222,206.5
0.346094,847.609,207.66
0.348047,842.848,208.82
0.349951,845.52,209.98
0.351807,850.543,211.14
0.353857,856.88,212.3
0.355811,862.33,213.46
0.357617,865.837,214.62
0.359668,871.739,215.78
0.361621,877.305,216.94
0.363525,883.009,218.1
0.36543,888.931,219.26
0.367432,895.49,220.42
0.369336,901.412,221.58
0.371143,906.889,222.74
0.373145,913.55,223.9
0.375098,919.795,225.06
0.377002,925.981,226.22
0.378906,932.24,227.38
0.380908,939.137,228.54
0.382861,944.988,229.7
0.384717,950.738,230.86
0.386719,956.882,232.02
0.388672,962.81,233.18
0.390527,967.268,234.34
0.392432,971.053,235.5
0.394482,973.068,236.66
0.396387,976.759,237.82
0.398242,981.17,238.98
0.400293,986.768,240.14
0.402246,992.13,241.3
0.404053,997.138,242.46
0.406006,1003.11,243.62
0.408008,1008.84,244.78
0.409863,1014.31,245.94
0.411768,1019.71,247.1
0.41377,1026,248.26
0.415723,1031.05,249.42
0.417578,1035.45,250.58
0.41958,1040.86,251.74
0.421582,1046.1,252.9
0.423389,1050.55,254.06
0.425293,1055.67,255.22
0.427344,1061.36,256.38
0.429297,1065.9,257.54
0.431104,1069.49,258.7
0.433154,1074.5,259.86
0.435107,1078.8,261.02
0.436963,1082.62,262.18
0.438867,1086.79,263.34
0.440869,1091.33,264.5
0.442773,1095.16,265.66
0.444629,1098.6,266.82
0.44668,1103.29,267.98
0.448633,1106.72,269.14
0.450488,1109.47,270.3
0.452393,1113.07,271.46
0.454395,1116.51,272.62
0.456299,1117.48,273.78
0.458154,1095.25,274.94
0.460205,1098.64,276.1
0.462158,1103.08,277.26
0.464014,1108.06,278.42
0.465967,1114.18,279.58
0.467969,1120.07,280.74
0.469824,1125.56,281.9
0.471631,1130.69,283.06
0.473682,1136.82,284.22
0.475635,1142.23,285.38
0.47749,1147.52,286.54
0.479492,1153.48,287.7
0.481494,1159.01,288.86
0.48335,1164.1,290.02
0.485205,1169.27,291.18
0.4873047,1175.14,292.34
0.489209,1180.21,293.5
0.491016,1184.7,294.66
0.493066,1190.45,295.82
0.49502,1195.81,296.98
0.496875,1200.43,298.14
0.498779,1205.46,299.3
0.50083,1210.93,300.46
0.502734,1215.9,301.62
0.504541,1220.3,302.78
0.506543,1225.78,303.94
0.508496,1230.58,305.1
0.510352,1235.25,306.26
0.512305,1240.06,307.42
0.514355,1245.44,308.58
0.516211,1249.57,309.74
0.518115,1253.68,310.9
0.520166,1258.08,312.06
0.522119,1262.15,313.22
0.523926,1229.74,314.38
0.525879,1235.63,315.54
0.527881,1241.71,316.7
0.529785,1246.52,317.86
0.531641,1251.43,319.02
0.533691,1257.5,320.18
0.535645,1262.29,321.34
0.537451,1256.4,322.5
0.539404,1261.43,323.66
0.541406,1249.96,324.82
0.543262,1237.38,325.98
0.545166,1241.41,327.14
0.547168,1247.03,328.3
0.549121,1252.9,329.46
0.550977,1258.21,330.62
0.552979,1264.34,331.78
0.554932,1269.83,332.94
0.556836,1274.87,334.1
0.55874,1280.01,335.26
0.560742,1285.79,336.42
0.562695,1290.73,337.58
0.564551,1295.7,338.74
0.566553,1301.14,339.9
0.568506,1306.35,341.06
0.570361,1310.77,342.22
0.572266,1315.76,343.38
0.574219,1320.69,344.54
0.576123,1325.69,345.7
0.578027,1330.1,346.86
0.580029,1335.46,348.02
0.582031,1340.03,349.18
0.583887,1344.21,350.34
0.58584,1348.82,351.5
0.587842,1353.71,352.66
0.589697,1357.87,353.82
0.591553,1362.21,354.98
0.593604,1367.32,356.14
0.595508,1371.8,357.3
0.597412,1376.08,358.46
0.599414,1381.1,359.62
0.601367,1385.65,360.78
0.603223,1390.08,361.94
0.605078,1394.17,363.1
0.607129,1399.32,364.26
0.609033,1403.03,365.42
0.610889,1407.47,366.58
0.612891,1412.05,367.74
0.614893,1416.66,368.9
0.616748,1420.31,370.06
0.618652,1424.78,371.22
0.620654,1429.02,372.38
0.622607,1433.16,373.54
0.624414,1436.2,374.7
0.626465,1440.59,375.86
0.628418,1444.27,377.02
0.630273,1447.9,378.18
0.632227,1451.33,379.34
0.634229,1455.66,380.5
0.636133,1459.17,381.66
0.637939,1462.17,382.82
0.639941,1465.07,383.98
0.641943,1468.01,385.14
0.64375,1470.2,386.3
0.645703,1473.83,387.46
0.647754,1477.64,388.62
0.649658,1480.52,389.78
0.651465,1483.48,390.94
0.653516,1487.26,392.1
0.655469,1490.59,393.26
0.657324,1493.61,394.42
0.659277,1497.05,395.58
0.661328,1500.65,396.74
0.663184,1502.99,397.9
0.665039,1504.84,399.06
0.66709,1502.84,400.22
0.668994,1498.38,401.38
0.6708008,1499.72,402.54
0.672803,1503.86,403.7
0.674805,1508.16,404.86
0.67666,1512.01,406.02
0.678564,1515.96,407.18
0.680615,1520.37,408.34
0.682568,1523.92,409.5
0.684375,1527.4,410.66
0.686377,1531.64,411.82
0.688379,1535.61,412.98
0.690186,1538.92,414.14
0.692139,1542.39,415.3
0.694141,1545.45,416.46
0.696094,1547.71,417.62
0.6979,1549.49,418.78
0.699951,1552.79,419.94
0.701904,1555.33,421.1
0.70376,1556.52,422.26
0.705664,1558.14,423.42
0.707666,1558.52,424.58
0.70957,1559.16,425.74
0.711377,1554.69,426.9
0.713428,1553.05,428.06
0.71543,1552.99,429.22
0.717285,1554.17,430.38
0.719238,1556.42,431.54
0.72124,1559.09,432.7
0.723096,1560.68,433.86
0.724951,1562.21,435.02
0.727002,1561.2,436.18
0.728955,1562.52,437.34
0.730811,1563.82,438.5
0.732764,1565.84,439.66
0.734766,1567.17,440.82
0.73667,1568.98,441.98
0.738477,1570.36,443.14
0.740527,1569.36,444.3
0.742432,1570.67,445.46
0.744287,1572.2,446.62
0.746289,1575.26,447.78
0.748242,1578.51,448.94
0.750146,1581.34,450.1
0.752051,1584.49,451.26
0.754102,1587.87,452.42
0.756006,1590.68,453.58
0.7578613,1593.39,454.74
0.759863,1596.95,455.9
0.761816,1600.11,457.06
0.763721,1602.55,458.22
0.765625,1605.28,459.38
0.767627,1603.6,460.54
0.769531,1603.32,461.7
0.771338,1601.8,462.86
0.773389,1601.82,464.02
0.775342,1596.05,465.18
0.777197,1170.01,466.34
0.779102,1159.48,467.5
0.781152,1158.36,468.66
0.783057,1160.23,469.82
0.784912,1162.56,470.98
0.786914,1166.11,472.14
0.788867,1169.54,473.3
0.790723,1172.1,474.46
0.792676,1174.79,475.62
0.794678,1177.72,476.78
0.796582,1179.34,477.94
0.798486,1179.56,479.1
0.800488,1180.96,480.26
0.802393,1182.94,481.42
0.804248,1184.69,482.58
0.806201,1187.47,483.74
0.808203,1189.36,484.9
0.810059,1191.52,486.06
0.811963,1194.07,487.22
0.814014,1197.92,488.38
0.815918,1200.93,489.54
0.817773,1203.9,490.7
0.819824,1207.3,491.86
0.821728,1210.21,493.02
0.823584,1212.72,494.18
0.8254883,1215.14,495.34
0.827539,1215.76,496.5
0.829443,1215.93,497.66
0.831299,1216.03,498.82
0.83335,1218.89,499.98
0.835303,1221.6,501.14
0.837158,1223.89,502.3
0.839063,1227.11,503.46
0.841064,1230.09,504.62
0.842969,1232.23,505.78
0.844824,1233.88,506.94
0.846875,1236.05,508.1
0.848828,1237.06,509.26
0.850635,1239.1,510.42
0.852588,1241.97,511.58
0.85459,1245.07,512.74
0.856494,1247.7,513.9
0.85835,1250.28,515.06
0.860449,1251.58,516.22
0.862354,1253.23,517.38
0.864209,1255.58,518.54
0.866211,1258.41,519.7
0.868164,1261.39,520.86
0.87002,1263.54,522.02
0.871875,1266.3,523.18
0.873926,1269.35,524.34
0.87583,1271.69,525.5
0.877686,1274.05,526.66
0.879687,1276.97,527.82
0.881689,1279.69,528.98
0.883545,1282.04,530.14
0.885449,1284.24,531.3
0.8875,1285.73,532.46
0.889404,1284.95,533.62
0.89126,1285.91,534.78
0.893262,1288.48,535.94
0.895215,1290.82,537.1
0.897119,1293.18,538.26
0.899023,1295.43,539.42
0.901025,1298.19,540.58
0.90293,1300.59,541.74
0.904785,1303.04,542.9
0.906787,1305.87,544.06
0.908691,1308.49,545.22
0.910547,1307.02,546.38
0.9125,1309.31,547.54
0.914551,1311.91,548.7
0.916455,1271.17,549.86
0.918311,1264.42,551.02
0.920361,1265.25,552.18
0.922314,1267.18,553.34
0.924121,1268.72,554.5
0.926123,1271.63,555.66
0.928125,1274.12,556.82
0.92998,1276.51,557.98
0.931836,1278.52,559.14
0.933887,1281.42,560.3
0.935791,1283.34,561.46
0.937646,1284.52,562.62
0.9396,1286.42,563.78
0.941602,1288.44,564.94
0.943457,1288.17,566.1
0.945361,1284.19,567.26
0.947363,1283.92,568.42
0.949316,1284.67,569.58
0.951172,1285.52,570.74
0.953223,1287.25,571.9
0.955127,1288.33,573.06
0.956982,1289.05,574.22
0.958936,1291.09,575.38
0.960938,1292.9,576.54
0.962891,1294.99,577.7
0.964697,1297.01,578.86
0.966748,1299.77,580.02
0.968701,1302.09,581.18
0.970508,1304.21,582.34
0.972412,1306.72,583.5
0.974414,1309.11,584.66
0.976367,1311.41,585.82
0.978223,1313.67,586.98
0.980273,1316.42,588.14
0.982227,1319.03,589.3
0.984033,1316.87,590.46
0.986035,1318.67,591.62
0.988037,1320.29,592.78
0.989893,1320.72,593.94
0.991748,1321.92,595.1
0.993799,1324.06,596.26
0.995752,1325.79,597.42
0.997607,1325.92,598.58
0.999609,1327.32,599.74
1.00156,1328.57,600.9
1.00342,1330.35,602.06
1.00532,1332.05,603.22
1.00732,1334.34,604.38
1.00923,1336.32,605.54
1.01108,1338.5,606.7
1.01309,1340.56,607.86
1.01509,1342.99,609.02
1.01694,1344.77,610.18
1.01885,1346.76,611.34
1.02085,1348.68,612.5
1.0228,1350.92,613.66
1.02461,1352.63,614.82
1.02666,1355.21,615.98
1.02861,1357.22,617.14
1.03047,1359.46,618.3
1.03242,1361.67,619.46
1.03442,1364.45,620.62
1.03633,1366.47,621.78
1.03813,1365.58,622.94
1.04019,1367.15,624.1
1.04209,1367.96,625.26
1.04395,1368.27,626.42
1.04595,1363.96,627.58
1.04795,1358.2,628.74
1.04985,1353.48,629.9
1.05171,1350.71,631.06
1.05376,1349.97,632.22
1.05566,1349.12,633.38
1.05752,1348.57,634.54
1.05947,1347.74,635.7
1.06152,1346.4,636.86
1.06338,1343.9,638.02
1.06528,1338.85,639.18
1.06729,1307.93,640.34
1.06919,1223.24,641.5
1.071,1216.59,642.66
1.073,1215.58,643.82
1.075,1215.26,644.98
1.07686,1215.59,646.14
1.07881,1216.19,647.3
1.08081,1217.98,648.46
1.08276,1219.71,649.62
1.08457,1221.17,650.78
1.08657,1223.35,651.94
1.08857,1221.09,653.1
1.09038,1220.97,654.26
1.09233,1221.93,655.42
1.09438,1221.84,656.58
1.09629,1222.36,657.74
1.09814,1222.91,658.9
1.10015,1160.09,660.06
1.1021,1101.12,661.22
1.10391,1075.24,662.38
1.10586,1073.42,663.54
1.10786,1073.73,664.7
1.10972,1074.38,665.86
1.11157,1075.01,667.02
1.11362,1077.25,668.18
1.11563,1079.39,669.34
1.11743,1081.31,670.5
1.11943,1083.52,671.66
1.12144,1084,672.82
1.12329,1082.92,673.98
1.12515,1084.61,675.14
1.12725,1086.8,676.3
1.12915,1088.4,677.46
1.13096,1086.7,678.62
1.13301,1088.56,679.78
1.13496,1090,680.94
1.13682,1091.37,682.1
1.13872,1092.41,683.26
1.14072,1094.27,684.42
1.14263,1095.42,685.58
1.14448,1097.02,686.74
1.14648,1098.86,687.9
1.14844,1100.6,689.06
1.15034,1100.98,690.22
1.15225,1101.4,691.38
1.1543,1102.36,692.54
1.1562,1103,693.7
1.15806,1103.91,694.86
1.16006,1105.95,696.02
1.16201,1107.72,697.18
1.16387,1109.03,698.34
1.16582,1110.47,699.5
1.16782,1112.27,700.66
1.16973,1113.86,701.82
1.17158,1115.3,702.98
1.17358,1117.69,704.14
1.17549,1118.66,705.3
1.17739,1120.1,706.46
1.17935,1121.55,707.62
1.18135,1123.12,708.78
1.18325,1124.01,709.94
1.18511,1118.14,711.1
1.18716,1118.16,712.26
1.18906,1118.5,713.42
1.19087,1119,714.58
1.19287,1120.61,715.74
1.19487,1120.78,716.9
1.19678,1122.07,718.06
1.19868,1122.77,719.22
1.20073,1123.9,720.38
1.20259,1125.16,721.54
1.20444,1126.44,722.7
1.2064,1127.3,723.86
1.2084,1128.72,725.02
1.21025,1129.13,726.18
1.21216,1130.63,727.34
1.21421,1132.28,728.5
1.21611,1134.02,729.66
1.21797,1135.53,730.82
1.22002,1137.46,731.98
1.22192,1138.7,733.14
1.22383,1137.79,734.3
1.22573,1139.09,735.46
1.22773,1140.94,736.62
1.22964,1142.84,737.78
1.23154,1144.7,738.94
1.23354,1146.85,740.1
1.2355,1148.54,741.26
1.2373,1150.31,742.42
1.23931,1152.5,743.58
1.24126,1154.86,744.74
1.24312,1156.64,745.9
1.24502,1158.72,747.06
1.24707,1160.57,748.22
1.24902,1162.27,749.38
1.25088,1162.99,750.54
1.25283,1164.66,751.7
1.25483,1166.31,752.86
1.25669,1167.81,754.02
1.25859,1169.24,755.18
1.26064,1171.14,756.34
1.26255,1172.62,757.5
1.2644,1173.76,758.66
1.26641,1175.35,759.82
1.26836,1176.11,760.98
1.27021,1175.12,762.14
1.27207,1175.49,763.3
1.27412,1177.01,764.46
1.27603,1177.86,765.62
1.27788,1179.1,766.78
1.27993,1178.25,767.94
1.28188,1178.9,769.1
1.28374,1179.22,770.26
1.28569,1180.45,771.42
1.2877,1182.03,772.58
1.28955,1183.08,773.74
1.29141,1184.48,774.9
1.29346,1186.25,776.06
1.29546,1188,777.22
1.29727,1188.97,778.38
1.29922,1190.77,779.54
1.30122,1191.71,780.7
1.30313,1190.2,781.86
1.30493,1189.41,783.02
1.30698,1187.85,784.18
1.30889,1187.06,785.34
1.31074,1187.78,786.5
1.31274,1189.04,787.66
1.31475,1178.2,788.82
1.31665,1175.88,789.98
1.31851,1177.74,791.14
1.32056,1181.07,792.3
1.32246,1183.9,793.46
1.32432,1186.65,794.62
1.32632,1189.49,795.78
1.32832,1192.3,796.94
1.33018,1193.96,798.1
1.33203,1195.82,799.26
1.33408,1197.61,800.42
1.33599,1198.03,801.58
1.33784,1199.18,802.74
1.33984,1201.04,803.9
1.3418,1202.72,805.06
1.34365,1204.01,806.22
1.34556,1205.65,807.38
1.34761,1206.96,808.54
1.34951,1208.24,809.7
1.35137,1209.29,810.86
1.35342,1211.21,812.02
1.35537,1212.27,813.18
1.35718,1213.19,814.34
1.35913,1214.48,815.5
1.36118,1215.88,816.66
1.36304,1216.27,817.82
1.36489,1216.45,818.98
1.36694,1213.68,820.14
1.3689,1213.67,821.3
1.3707,1214.09,822.46
1.37266,1215.7,823.62
1.37466,1216.52,824.78
1.37656,1217.48,825.94
1.37842,1218.83,827.1
1.38047,1221.05,828.26
1.38242,1222.33,829.42
1.38428,1223.73,830.58
1.38623,1225.73,831.74
1.38823,1227.6,832.9
1.39009,1228.92,834.06
1.39194,1230.58,835.22
1.39399,1232.7,836.38
1.39595,1234.29,837.54
1.3978,1235.53,838.7
1.39985,1237.14,839.86
1.40176,1234.98,841.02
1.40361,1236,842.18
1.40552,1237.43,843.34
1.40752,1239,844.5
1.40942,1238.67,845.66
1.41128,1239.47,846.82
1.41328,1241.16,847.98
1.41528,1241.31,849.14
1.41714,1242.12,850.3
1.41909,1243.38,851.46
1.42109,1245.3,852.62
1.42295,1246.29,853.78
1.4248,1247.44,854.94
1.42686,1248.83,856.1
1.42881,1250.06,857.26
1.43066,1250.65,858.42
1.43262,1250.94,859.58
1.43467,1251.57,860.74
1.43647,1252.13,861.9
1.43833,1252.95,863.06
1.44038,1254.55,864.22
1.44233,1255.66,865.38
1.44414,1256.55,866.54
1.44619,1258,867.7
1.44819,1256.68,868.86
1.45005,1256.1,870.02
1.4519,1256.76,871.18
1.45396,1258.42,872.34
1.45586,1258.52,873.5
1.45771,1258.21,874.66
1.45972,1258.89,875.82
1.46172,1259.81,876.98
1.46357,1259.92,878.14
1.46548,1259.82,879.3
1.46748,1258.51,880.46
1.46938,1254.26,881.62
1.47124,1253.05,882.78
1.47324,1253.77,883.94
1.4752,1254.64,885.1
1.47705,1254.91,886.26
1.479,1255.8,887.42
1.48101,1256.5,888.58
1.48291,1257.14,889.74
1.48477,1257.94,890.9
1.48682,1259.64,892.06
1.48872,1260.77,893.22
1.49058,1262.26,894.38
1.49253,1263.6,895.54
1.49458,1265.28,896.7
1.49648,1266.15,897.86
1.49834,1267.57,899.02
1.50034,1269.43,900.18
1.50229,1271.14,901.34
1.5041,1272.11,902.5
1.50605,1273.88,903.66
1.50806,1275.45,904.82
1.50991,1276.86,905.98
1.51182,1278.35,907.14
1.51382,1279.86,908.3
1.51577,1277.62,909.46
1.51763,1274.69,910.62
1.51963,1275.57,911.78
1.52163,1276.75,912.94
1.52349,1277.81,914.1
1.52539,1278.21,915.26
1.52744,1279.41,916.42
1.52935,1280.15,917.58
1.53115,1280.95,918.74
1.5332,1282.35,919.9
1.53516,1283.94,921.06
1.53701,1284.95,922.22
1.53892,1286.48,923.38
1.54092,1288.48,924.54
1.54282,1290.06,925.7
1.54468,1291.56,926.86
1.54668,1293.58,928.02
1.54868,1295.35,929.18
1.55054,1296.85,930.34
1.55249,1298.27,931.5
1.55449,1299.15,932.66
1.5564,1300.11,933.82
1.55825,1300.66,934.98
1.5603,1302.07,936.14
1.56221,1302.73,937.3
1.56406,1303.73,938.46
1.56606,1304.95,939.62
1.56807,1306.52,940.78
1.56992,1307.57,941.94
1.57178,1308.85,943.1
1.57378,1310.44,944.26
1.57568,1311.92,945.42
1.57754,1312.22,946.58
1.57954,1312.83,947.74
1.58154,1312.6,948.9
1.58345,1312.14,950.06
1.58535,1274.27,951.22
1.58735,1259.58,952.38
1.58926,1242.6,953.54
1.59106,1239.56,954.7
1.59312,1239.58,955.86
1.59512,1240.19,957.02
1.59697,1240.08,958.18
1.59893,1240.97,959.34
1.60093,1242.51,960.5
1.60278,1243.51,961.66
1.60464,1244.75,962.82
1.60664,1246.15,963.98
1.60859,1247.83,965.14
1.6104,1248.56,966.3
1.6124,1250.1,967.46
1.6144,1251.49,968.62
1.61631,1252.71,969.78
1.61816,1253.33,970.94
1.62021,1247.03,972.1
1.62212,1248.27,973.26
1.62397,1249.16,974.42
1.62593,1251.58,975.58
1.62798,1252.68,976.74
1.62983,1253.8,977.9
1.63169,1255.26,979.06
1.63374,1257.64,980.22
1.63569,1259.43,981.38
1.6375,1261.1,982.54
1.6395,1263.35,983.7
1.64146,1265.32,984.86
1.64331,1266.87,986.02
1.64521,1268.61,987.18
1.64727,1270.52,988.34
1.64922,1271.87,989.5
1.65103,1272.57,990.66
1.65303,1274.14,991.82
1.65503,1274.97,992.98
1.65688,1275.45,994.14
1.65879,1272.13,995.3
1.66079,1269.12,996.46
1.66274,1264.66,997.62
1.6646,1262.7,998.78
1.6666,1243.87,999.94
1.66855,1227.53,1001.1
1.67036,1220.23,1002.26
1.67231,1217.63,1003.42
1.67432,1217.92,1004.58
1.67622,1218.55,1005.74
1.67808,1219.88,1006.9
1.68013,1221.5,1008.06
1.68208,1221.55,1009.22
1.68394,1198.09,1010.38
1.68589,1195.98,1011.54
1.68789,1194.59,1012.7
1.68979,1194.04,1013.86
1.69165,1194.82,1015.02
1.6937,1197.39,1016.18
1.69565,1198.79,1017.34
1.69751,1198.87,1018.5
1.69946,1197.26,1019.66
1.70142,1195.42,1020.82
1.70327,1195.1,1021.98
1.70518,1196.38,1023.14
1.70718,1198.32,1024.3
1.70908,1200.05,1025.46
1.71094,1200.92,1026.62
1.71294,1202.04,1027.78
1.71494,1202.52,1028.94
1.71685,1202.67,1030.1
1.71875,1203.21,1031.26
1.72075,1204.48,1032.42
1.72271,1205.67,1033.58
1.72451,1206.37,1034.74
1.72651,1207.67,1035.9
1.72847,1208.07,1037.06
1.73037,1209.11,1038.22
1.73228,1210.8,1039.38
1.73433,1213.39,1040.54
1.73623,1215.24,1041.7
1.73804,1217.3,1042.86
1.74004,1219.71,1044.02
1.74199,1221.61,1045.18
1.74385,1223.15,1046.34
1.7458,1225.33,1047.5
1.7478,1226.8,1048.66
1.74971,1225.99,1049.82
1.75156,1227.2,1050.98
1.75356,1229.31,1052.14
1.75557,1231.15,1053.3
1.75737,1232.37,1054.46
1.75937,1232.53,1055.62
1.76138,1233.97,1056.78
1.76323,1235.12,1057.94
1.76514,1236.24,1059.1
1.76719,1238.15,1060.26
1.76909,1236.33,1061.42
1.7709,1199.96,1062.58
1.7729,1197.74,1063.74
1.77485,1199.55,1064.9
1.77671,1201.33,1066.06
1.77861,1201.33,1067.22
1.78066,1200.02,1068.38
1.78262,1195.78,1069.54
1.78447,1196,1070.7
1.78647,1197.91,1071.86
1.78843,1199.67,1073.02
1.79023,1201.58,1074.18
1.79219,1202.31,1075.34
1.79424,1196.46,1076.5
1.79614,1194.19,1077.66
1.798,1192.76,1078.82
1.80005,1191.19,1079.98
1.802,1191.36,1081.14
1.80381,1191.96,1082.3
1.80571,1193.91,1083.46
1.80771,1196.13,1084.62
1.80962,1198.53,1085.78
1.81147,1200.3,1086.94
1.81353,1203.04,1088.1
1.81548,1205.07,1089.26
1.81733,1207.08,1090.42
1.81929,1209.38,1091.58
1.82129,1212.04,1092.74
1.82314,1214.01,1093.9
1.82505,1216.26,1095.06
1.82705,1218.75,1096.22
1.829,1221.17,1097.38
1.83086,1222.76,1098.54
1.83281,1225.26,1099.7
1.83486,1227.39,1100.86
1.83672,1229.1,1102.02
1.83857,1230.56,1103.18
1.84058,1233.1,1104.34
1.84253,1234.57,1105.5
1.84434,1236.33,1106.66
1.84639,1238.31,1107.82
1.84834,1240.25,1108.98
1.8502,1240.71,1110.14
1.8521,1241.66,1111.3
1.85415,1242.04,1112.46
1.85605,1241.83,1113.62
1.85791,1240.14,1114.78
1.85991,1240.95,1115.94
1.86187,1241.72,1117.1
1.86377,1241.4,1118.26
1.86567,1241.15,1119.42
1.86768,1242.93,1120.58
1.86958,1244.29,1121.74
1.87139,1246.16,1122.9
1.87344,1248.39,1124.06
1.87539,1250.7,1125.22
1.87725,1252.01,1126.38
1.8792,1254.14,1127.54
1.8812,1255.39,1128.7
1.88311,1255.63,1129.86
1.88501,1254.1,1131.02
1.88701,1253.69,1132.18
1.88896,1254.37,1133.34
1.89077,1255.64,1134.5
1.89277,1257.27,1135.66
1.89478,1259.48,1136.82
1.89668,1260.94,1137.98
1.89854,1262.71,1139.14
1.90054,1264.89,1140.3
1.90249,1266.76,1141.46
1.9043,1267.98,1142.62
1.9063,1270,1143.78
1.90825,1271.48,1144.94
1.91011,1272.59,1146.1
1.91201,1273.6,1147.26
1.91406,1275.28,1148.42
1.91602,1276.18,1149.58
1.91787,1276.91,1150.74
1.91987,1278.43,1151.9
1.92183,1279.5,1153.06
1.92368,1280.45,1154.22
1.92559,1281.65,1155.38
1.92764,1283.2,1156.54
1.92954,1284.12,1157.7
1.93135,1284.48,1158.86
1.9334,1285.17,1160.02
1.93535,1284.76,1161.18
1.93721,1283.07,1162.34
1.93911,1282.81,1163.5
1.94111,1282.75,1164.66
1.94302,1281.36,1165.82
1.94487,1278.03,1166.98
1.94692,1278.05,1168.14
1.94888,1278.67,1169.3
1.95073,1279.63,1170.46
1.95269,1281.06,1171.62
1.95469,1282.68,1172.78
1.95654,1283.45,1173.94
1.95845,1284.45,1175.1
1.9605,1285.84,1176.26
1.9624,1286.75,1177.42
1.96426,1287.31,1178.58
1.96626,1288.5,1179.74
1.96826,1289.43,1180.9
1.97012,1290.21,1182.06
1.97197,1290.99,1183.22
1.97397,1292.45,1184.38
1.97588,1290.89,1185.54
1.97773,1288.26,1186.7
1.97974,1287.4,1187.86
1.98174,1287.36,1189.02
1.98359,1286.62,1190.18
1.98555,1213.82,1191.34
1.98755,1200.05,1192.5
1.98945,1196.14,1193.66
1.99126,1165.67,1194.82
1.99331,1156.33,1195.98
1.99531,1157.01,1197.14
1.99717,1158.39,1198.3
1.99912,1160.72,1199.46
2.00107,1163.07,1200.62
2.00298,1165.54,1201.78
2.00483,1167.58,1202.94
2.00684,1170.43,1204.1
2.00879,1172.87,1205.26
2.0106,1174.37,1206.42
2.0126,1176.9,1207.58
2.0146,1179.54,1208.74
2.0165,1181.37,1209.9
2.01836,1183.19,1211.06
2.02041,1184.55,1212.22
2.02231,1185.39,1213.38
2.02417,1186.25,1214.54
2.02617,1188.37,1215.7
2.02817,1190.38,1216.86
2.03003,1192.08,1218.02
2.03193,1193.3,1219.18
2.03398,1194.55,1220.34
2.03584,1193.86,1221.5
2.0377,1188.23,1222.66
2.0397,1187.05,1223.82
2.04165,1186.44,1224.98
2.04355,1186.03,1226.14
2.04546,1186.37,1227.3
2.04746,1186.67,1228.46
2.04941,1186.71,1229.62
2.05127,1187.58,1230.78
2.05327,1189.06,1231.94
2.05518,1189.49,1233.1
2.05708,1188.85,1234.26
2.05898,1189.24,1235.42
2.06104,1189.2,1236.58
2.06294,1189.95,1237.74
2.064795,1190.5,1238.9
2.0668,1191.91,1240.06
2.06875,1192.81,1241.22
2.07061,1193.98,1242.38
2.07251,1195.13,1243.54
2.07451,1193.55,1244.7
2.07642,1191.25,1245.86
2.07827,1190.7,1247.02
2.08032,1190.71,1248.18
2.08228,1189.69,1249.34
2.08413,1187.27,1250.5
2.08613,1186.92,1251.66
2.08809,1187.35,1252.82
2.08994,1187.21,1253.98
2.0918,1187.35,1255.14
2.0939,1188.3,1256.3
2.09585,1188.55,1257.46
2.09766,1188.51,1258.62
2.09966,1188.56,1259.78
2.10161,1188.56,1260.94
2.10347,1188.67,1262.1
2.10537,1189.43,1263.26
2.10737,1190.26,1264.42
2.10928,1190.3,1265.58
2.11113,1190.2,1266.74
2.11313,1190.72,1267.9
2.11514,1190.86,1269.06
2.11699,1191.13,1270.22
2.11895,1192.06,1271.38
2.121,1192.11,1272.54
2.12285,1192.4,1273.7
2.12471,1192.9,1274.86
2.12676,1193.94,1276.02
2.12871,1194.64,1277.18
2.13052,1195.51,1278.34
2.13247,1196.77,1279.5
2.13452,1198.21,1280.66
2.13638,1199.32,1281.82
2.13823,1200.54,1282.98
2.14023,1202.01,1284.14
2.14219,1203.03,1285.3
2.14404,1203.44,1286.46
2.146,1204.18,1287.62
2.148,1204.29,1288.78
2.1499,1204.16,1289.94
2.15176,1202.7,1291.1
2.15381,1203.04,1292.26
2.15576,1202.6,1293.42
2.15757,1202.85,1294.58
2.15957,1203.8,1295.74
2.16152,1204.91,1296.9
2.16343,1205.76,1298.06
2.16533,1207.15,1299.22
2.16738,1208.35,1300.38
2.16929,1209.3,1301.54
2.17109,1210.04,1302.7
2.1731,1211.37,1303.86
2.17505,1212.35,1305.02
2.1769,1212.86,1306.18
2.17881,1213.68,1307.34
2.18086,1214.74,1308.5
2.18281,1215.25,1309.66
2.18467,1215.56,1310.82
2.18667,1216.47,1311.98
2.18862,1216.36,1313.14
2.19043,1216.02,1314.3
2.19238,1215.41,1315.46
2.19443,1215.21,1316.62
2.19634,1214.43,1317.78
2.19819,1209.24,1318.94
2.20024,1207.93,1320.1
2.20215,1208.61,1321.26
2.204,1209.44,1322.42
2.20591,1211.36,1323.58
2.20791,1213.24,1324.74
2.20981,1215.01,1325.9
2.21167,1216.62,1327.06
2.21372,1218.82,1328.22
2.21567,1220.61,1329.38
2.21753,1222.22,1330.54
2.21953,1224.01,1331.7
2.22148,1225.46,1332.86
2.22334,1226.34,1334.02
2.2252,1227.31,1335.18
2.22729,1229.07,1336.34
2.2292,1230.28,1337.5
2.23105,1231.42,1338.66
2.23306,1233.18,1339.82
2.23501,1234.86,1340.98
2.23687,1236.07,1342.14
2.23877,1237.54,1343.3
2.24077,1239.38,1344.46
2.24268,1241,1345.62
2.24458,1242.12,1346.78
2.24658,1244.09,1347.94
2.24858,1245.47,1349.1
2.25039,1246.62,1350.26
2.25229,1247.67,1351.42
2.25435,1248.91,1352.58
2.25625,1249.52,1353.74
2.25811,1249.99,1354.9
2.26016,1250.71,1356.06
2.26211,1250.69,1357.22
2.26396,1250.33,1358.38
2.26592,1250.94,1359.54
2.26787,1251.83,1360.7
2.26978,1252.92,1361.86
2.27158,1253.84,1363.02
2.27363,1255.68,1364.18
2.27559,1256.76,1365.34
2.27744,1257.69,1366.5
2.27944,1258.9,1367.66
2.2814,1260.26,1368.82
2.2833,1261.05,1369.98
2.28516,1262.14,1371.14
2.28721,1263.38,1372.3
2.28911,1264.38,1373.46
2.29097,1264.93,1374.62
2.29297,1266.33,1375.78
2.29497,1267.45,1376.94
2.29683,1268.3,1378.1
2.29873,1269.19,1379.26
2.30073,1270.33,1380.42
2.30264,1270.88,1381.58
2.30449,1270.99,1382.74
2.30649,1271.41,1383.9
2.30845,1271.89,1385.06
2.3103,1272.3,1386.22
2.31221,1273.22,1387.38
2.31426,1274.65,1388.54
2.31621,1275.34,1389.7
2.31802,1276.28,1390.86
2.32007,1277.41,1392.02
2.32202,1278.44,1393.18
2.32388,1279.05,1394.34
2.32583,1280.03,1395.5
2.32783,1280.74,1396.66
2.32974,1281.1,1397.82
2.33154,1281.12,1398.98
2.33359,1281.76,1400.14
2.33555,1281.51,1401.3
2.3374,1281.04,1402.46
2.33936,1281.09,1403.62
2.34131,1281.48,1404.78
2.34321,1281.83,1405.94
2.34507,1282.5,1407.1
2.34712,1283.77,1408.26
2.34907,1284.58,1409.42
2.35088,1285.31,1410.58
2.35293,1286.37,1411.74
2.35488,1287.58,1412.9
2.35674,1287.47,1414.06
2.35864,1288.36,1415.22
2.36069,1288.22,1416.38
2.3626,1287.9,1417.54
2.36445,1287.54,1418.7
2.36646,1288.58,1419.86
2.36846,1288.99,1421.02
2.37026,1289.44,1422.18
2.37217,1290,1423.34
2.37417,1291.26,1424.5
2.37607,1291.73,1425.66
2.37793,1292.37,1426.82
2.37998,1293.46,1427.98
2.38193,1294.25,1429.14
2.38379,1294.52,1430.3
2.38574,1294.99,1431.46
2.38774,1295.53,1432.62
2.38965,1295.61,1433.78
2.39145,1295.77,1434.94
2.39351,1296.73,1436.1
2.39551,1297.24,1437.26
2.39736,1297.72,1438.42
2.39932,1298.48,1439.58
2.40132,1299.62,1440.74
2.40317,1299.78,1441.9
2.40503,1300.19,1443.06
2.40703,1300.63,1444.22
2.40898,1301.21,1445.38
2.41084,1301.29,1446.54
2.41279,1302.24,1447.7
2.41484,1302.71,1448.86
2.4167,1303.32,1450.02
2.4186,1302.86,1451.18
2.42061,1303.47,1452.34
2.42251,1303.24,1453.5
2.42437,1302.74,1454.66
2.42637,1302.65,1455.82
2.42837,1302.83,1456.98
2.43022,1302.85,1458.14
2.43213,1303.53,1459.3
2.43418,1304.4,1460.46
2.43608,1304.98,1461.62
2.43789,1305.21,1462.78
2.43989,1306.12,1463.94
2.44185,1306.61,1465.1
2.4437,1307.12,1466.26
2.44565,1307.68,1467.42
2.44771,1308.52,1468.58
2.44956,1308.55,1469.74
2.45146,1308.47,1470.9
2.45347,1308.04,1472.06
2.45542,1305.36,1473.22
2.45723,1299.86,1474.38
2.45923,1295.94,1475.54
2.46123,1295.53,1476.7
2.46313,1295.94,1477.86
2.46499,1296.53,1479.02
2.46699,1297.92,1480.18
2.46895,1298.92,1481.34
2.47075,1299.91,1482.5
2.4727,1301.16,1483.66
2.47471,1302.38,1484.82
2.47661,1303.01,1485.98
2.47847,1303.61,1487.14
2.48057,1304.39,1488.3
2.48247,1304.61,1489.46
2.48433,1303.45,1490.62
2.48633,1302.69,1491.78
2.48828,1301.72,1492.94
2.49014,1300.38,1494.1
2.49204,1299.34,1495.26
2.49409,1298.88,1496.42
2.496,1296.94,1497.58
2.49785,1292.32,1498.74
2.49985,1259.9,1499.9
2.50181,1259.37,1501.06
2.50366,1259.84,1502.22
2.50557,1261.04,1503.38
2.50757,1262.52,1504.54
2.50947,1263.68,1505.7
2.51133,1264.51,1506.86
2.51338,1266.01,1508.02
2.51533,1267.06,1509.18
2.51719,1267.68,1510.34
2.51919,1268.52,1511.5
2.52114,1269.51,1512.66
2.52305,1269.98,1513.82
2.5249,1270.54,1514.98
2.52695,1271.27,1516.14
2.52886,1271.82,1517.3
2.53071,1271.63,1518.46
2.53271,1271.87,1519.62
2.53472,1271.48,1520.78
2.53657,1270.7,1521.94
2.53843,1269.22,1523.1
2.54043,1267.32,1524.26
2.54238,1257.85,1525.42
2.54419,1252.81,1526.58
2.54619,1252.91,1527.74
2.54819,1254.42,1528.9
2.55005,1255.4,1530.06
2.55195,1256.94,1531.22
2.554,1258.54,1532.38
2.55596,1259.9,1533.54
2.55776,1260.74,1534.7
2.55977,1262.29,1535.86
2.56177,1263.44,1537.02
2.56362,1264.4,1538.18
2.56553,1265.43,1539.34
2.56758,1266.76,1540.5
2.56948,1267.31,1541.66
2.57129,1267.88,1542.82
2.57329,1268.83,1543.98
2.57524,1269.44,1545.14
2.5771,1269.59,1546.3
2.57905,1269.38,1547.46
2.5811,1269,1548.62
2.58301,1266.12,1549.78
2.58486,1257.35,1550.94
2.58687,1255.06,1552.1
2.58882,1254.92,1553.26
2.59063,1255.23,1554.42
2.59263,1256.2,1555.58
2.59463,1257.29,1556.74
2.59653,1257.95,1557.9
2.59839,1258.4,1559.06
2.60044,1259.4,1560.22
2.60234,1259.67,1561.38
2.6042,1259.28,1562.54
2.60615,1257.6,1563.7
2.60811,1235.04,1564.86
2.60996,1235.26,1566.02
2.61187,1236.45,1567.18
2.61392,1238.01,1568.34
2.61587,1239.19,1569.5
2.61772,1239.95,1570.66
2.61973,1241.36,1571.82
2.62168,1242.46,1572.98
2.62354,1243.31,1574.14
2.62544,1244.13,1575.3
2.62749,1245.16,1576.46
2.62939,1245.54,1577.62
2.63125,1243.16,1578.78
2.6333,1090.56,1579.94
2.63521,1094.43,1581.1
2.63706,1097.68,1582.26
2.63896,1101.28,1583.42
2.64097,1104.8,1584.58
2.64287,1108.09,1585.74
2.64473,1111.12,1586.9
2.64678,1114.71,1588.06
2.64878,1117.97,1589.22
2.65059,1120.85,1590.38
2.65254,1124.04,1591.54
2.65454,1127.27,1592.7
2.65645,1129.95,1593.86
2.6583,1132.63,1595.02
2.66035,1135.59,1596.18
2.6623,1138.36,1597.34
2.66411,1140.53,1598.5
2.66611,1143.35,1599.66
2.66807,1145.75,1600.82
2.66992,1148.06,1601.98
2.67178,1150.14,1603.14
2.67383,1152.98,1604.3
2.67578,1154.92,1605.46
2.67764,1157.06,1606.62
2.67964,1145.89,1607.78
2.68164,1147.28,1608.94
2.6835,1148.36,1610.1
2.6854,1150.05,1611.26
2.6874,1151.76,1612.42
2.68931,1153.34,1613.58
2.69116,1154.5,1614.74
2.69321,1156.59,1615.9
2.69517,1158.12,1617.06
2.69702,1159.33,1618.22
2.69893,1160.87,1619.38
2.70098,1162.63,1620.54
2.70288,1163.89,1621.7
2.70469,1165.07,1622.86
2.70669,1166.85,1624.02
2.70864,1168.15,1625.18
2.7105,1169.44,1626.34
2.71245,1170.83,1627.5
2.71445,1172.83,1628.66
2.71641,1173.87,1629.82
2.71826,1175.37,1630.98
2.72026,1176.76,1632.14
2.72222,1178.37,1633.3
2.72407,1179.21,1634.46
2.72603,1180.9,1635.62
2.72803,1182.16,1636.78
2.72993,1183.31,1637.94
2.73179,1184.26,1639.1
2.73384,1186.02,1640.26
2.73574,1186.91,1641.42
2.7376,1187.79,1642.58
2.73955,1188.8,1643.74
2.74155,1190.03,1644.9
2.74341,1190.52,1646.06
2.74526,1191.48,1647.22
2.74731,1191.81,1648.38
2.74927,1192.22,1649.54
2.75112,1192.53,1650.7
2.75313,1193.84,1651.86
2.75508,1194.81,1653.02
2.75693,1195.79,1654.18
2.75889,1196.89,1655.34
2.76089,1198.46,1656.5
2.76279,1199.34,1657.66
2.76465,1200.17,1658.82
2.7667,1201.4,1659.98
2.76865,1202.55,1661.14
2.77046,1203.24,1662.3
2.77236,1204.36,1663.46
2.77441,1205.4,1664.62
2.77627,1206.33,1665.78
2.77812,1207.07,1666.94
2.78018,1208.4,1668.1
2.78213,1209.43,1669.26
2.78398,1210.15,1670.42
2.78599,1211.08,1671.58
2.78794,1212.06,1672.74
2.78979,1212.44,1673.9
2.79165,1212.87,1675.06
2.79375,1213.78,1676.22
2.7957,1214.23,1677.38
2.79756,1214.07,1678.54
2.79956,1213.81,1679.7
2.80151,1213.84,1680.86
2.80337,1213.76,1682.02
2.80522,1214.11,1683.18
2.80723,1214.64,1684.34
2.80918,1214.98,1685.5
2.81099,1214.9,1686.66
2.81304,1215.61,1687.82
2.81504,1215.85,1688.98
2.81689,1215.92,1690.14
2.8188,1215.94,1691.3
2.8208,1216.45,1692.46
2.82271,1216.17,1693.62
2.82456,1216.14,1694.78
2.82656,1216.32,1695.94
2.82856,1216.51,1697.1
2.83042,1215.8,1698.26
2.83237,1214.49,1699.42
2.83438,1212.13,1700.58
2.83628,1211.53,1701.74
2.83809,1210.85,1702.9
2.84014,1209.46,1704.06
2.84204,1209.58,1705.22
2.8439,1209.67,1706.38
2.84585,1210.49,1707.54
2.8479,1210.78,1708.7
2.84976,1210.42,1709.86
2.85161,1210.65,1711.02
2.85366,1211.19,1712.18
2.85562,1211.88,1713.34
2.85742,1211.93,1714.5
2.85942,1212.86,1715.66
2.86143,1213.34,1716.82
2.86333,1213.78,1717.98
2.86519,1214.02,1719.14
2.86719,1214.79,1720.3
2.86914,1214.97,1721.46
2.87095,1215.13,1722.62
2.8729,1215.02,1723.78
2.8749,1208.36,1724.94
2.87681,1208.38,1726.1
2.87871,1209.19,1727.26
2.88076,1209.98,1728.42
2.88267,1205.63,1729.58
2.88452,1204.62,1730.74
2.88652,1204.73,1731.9
2.88848,1204.54,1733.06
2.89033,1204.3,1734.22
2.89224,1204.19,1735.38
2.89429,1204.51,1736.54
2.89624,1203.9,1737.7
2.8978,1203.08,1738.72