File: Data/Thesis_Samples_Data/Flexural_Rebar_1/Flexural_Rebar_1.csv
"File Path: C:\Users\Lab User\Desktop\Will\Thesis Tests\Test Run 1 04-8-22 21 16 55 PM\DAQ- Crosshead, … - (Timed).csv   ",,
Test: MTS EM Flexure (3-Point Bend) - Will 2,,
Test Run: Test Run 1,,
Date: 4/8/2022 8:55:58 PM,,
,,
,,
Crosshead ,Load ,Time
mm,N,sec
9.77E-05,2.81412,0.119
0.001367187,5.32761,0.919
0.002734375,8.88846,1.719
0.004052734,12.3355,2.519
0.00546875,15.8766,3.319
0.006884766,19.1549,4.119
0.008203125,21.9956,4.919
0.009472657,24.7393,5.719
0.0107422,27.6175,6.519
0.0121094,30.8325,7.319
0.01352539,34.421,8.119
0.01484375,38.1847,8.919
0.0161133,41.7535,9.719
0.0174316,45.475,10.519
0.0187988,49.79,11.319
0.0202148,53.9086,12.119
0.021582,58.0764,12.919
0.0228516,62.1391,13.719
0.0241211,66.292,14.519
0.0254883,70.9761,15.319
0.0268555,75.8304,16.119
0.0282227,80.5866,16.919
0.0294922,85.6142,17.719
0.0307617,90.3577,18.519
0.0321289,95.8838,19.319
0.0335449,102.022,20.119
0.0348633,107.545,20.919
0.0361816,113.104,21.719
0.0374512,118.978,22.519
0.0388184,125.641,23.319
0.0402344,132.366,24.119
0.0415527,139.338,24.919
0.0428223,146.148,25.719
0.0440918,153.704,26.519
0.045459,162.853,27.319
0.0468262,173.272,28.119
0.0481445,183.213,28.919
0.0494629,193.322,29.719
0.0507324,203.899,30.519
0.0520996,215.717,31.319
0.0535156,228.433,32.119
0.054834,239.687,32.919
0.0561523,251.174,33.719
0.0574707,262.682,34.519
0.0587891,275.623,35.319
0.0602051,288.823,36.119
0.0615234,301.626,36.919
0.0628418,313.986,37.719
0.0640625,326.399,38.519
0.0654785,340.96,39.319
0.0668945,355.196,40.119
0.0682129,349.572,40.919
0.0694824,362.7388,41.719
0.07075195,375.57,42.519
0.072168,390.073,43.319
0.0735352,404.02,44.119
0.0748535,417.116,44.919
0.0761719,430.141,45.719
0.0774414,442.605,46.519
0.0787598,457.009,47.319
0.0801758,471.945,48.119
0.0814941,485.823,48.919
0.0828125,499.287,49.719
0.0840332,512.653,50.519
0.0854492,526.67,51.319
0.0868652,540.904,52.119
0.0881836,551.016,52.919
0.0894531,561.628,53.719
0.0907715,573.173,54.519
0.0921387,586.776,55.319
0.0935547,600.18,56.119
0.094873,595.366,56.919
0.0961426,604.933,57.719
0.0974121,616.344,58.519
0.0988281,629.548,59.319
0.100195,643.414,60.119
0.101563,654.807,60.919
0.102832,661.156,61.719
0.10415,544.263,62.519
0.105518,499.436,63.319
0.106885,484.703,64.119
0.108203,481.593,64.919
0.109473,482.093,65.719
0.110742,482.008,66.519
0.112109,482.993,67.319
0.113477,484.822,68.119
0.114844,479.924,68.919
0.116113,471.378,69.719
0.117383,471.638,70.519
0.11875,474.176,71.319
0.120166,476.919,72.119
0.121533,480.616,72.919
0.122852,482.743,73.719
0.124121,482.6,74.519
0.125439,486.242,75.319
0.126855,492.158,76.119
0.128174,497.889,76.919
0.129492,503.366,77.719
0.130762,508.806,78.519
0.132129,515.716,79.319
0.133496,522.428,80.119
0.134912,528.985,80.919
0.136133,534.965,81.719
0.137451,541.691,82.519
0.138818,544.469,83.319
0.140234,550.471,84.119
0.141553,557.47,84.919
0.142871,564.291,85.719
0.144092,571.229,86.519
0.145459,579.635,87.319
0.146826,588.08,88.119
0.148193,595.796,88.919
0.149463,602.556,89.719
0.150732,605.777,90.519
0.1521,613.481,91.319
0.153516,622.15,92.119
0.154883,629.959,92.919
0.156201,637.777,93.719
0.157422,645.306,94.519
0.158838,654.295,95.319
0.160205,663.038,96.119
0.161523,670.961,96.919
0.162793,678.553,97.719
0.164062,686.208,98.519
0.16543,695.147,99.319
0.166846,704.057,100.119
0.168213,712.294,100.919
0.169482,704.544,101.719
0.170801,714.574,102.519
0.172119,724.326,103.319
0.173535,734.375,104.119
0.174854,742.901,104.919
0.176172,751.167,105.719
0.177393,758.898,106.519
0.17876,767.616,107.319
0.180176,776.076,108.119
0.181543,754.281,108.919
0.182812,757.59,109.719
0.184082,760.002,110.519
0.185449,768.654,111.319
0.186865,777.436,112.119
0.188184,783.926,112.919
0.189502,778.789,113.719
0.190771,786.669,114.519
0.192139,795.298,115.319
0.193555,804.201,116.119
0.194873,812.59,116.919
0.196143,820.004,117.719
0.197412,825.364,118.519
0.198828,828.386,119.319
0.200195,836.391,120.119
0.201563,843.797,120.919
0.202832,850.516,121.719
0.204102,857.359,122.519
0.205469,861.899,123.319
0.206836,867.3,124.119
0.208203,874.359,124.919
0.209473,881.347,125.719
0.210742,887.836,126.519
0.212061,895.54,127.319
0.213477,903.542,128.119
0.214844,910.353,128.919
0.216113,916.784,129.719
0.217383,923.476,130.519
0.218799,931.228,131.319
0.220215,938.662,132.119
0.221533,945.449,132.919
0.222852,951.775,133.719
0.224072,957.781,134.519
0.225488,964.948,135.319
0.226855,971.76,136.119
0.228223,978.134,136.919
0.229492,983.165,137.719
0.230762,986.402,138.519
0.232129,986.547,139.319
0.233545,972.61,140.119
0.234912,970.452,140.919
0.236182,975.717,141.719
0.237451,981.63,142.519
0.238818,989.131,143.319
0.240186,996.103,144.119
0.241553,1002.84,144.919
0.242822,1007.72,145.719
0.244092,1013.52,146.519
0.245459,1020.51,147.319
0.246826,978.98,148.119
0.248145,985.719,148.919
0.249414,992.677,149.719
0.250732,999.994,150.519
0.2521,1007.94,151.319
0.253516,1016.07,152.119
0.254883,1023.24,152.919
0.256152,1029.05,153.719
0.257422,1021.93,154.519
0.258838,1026.47,155.319
0.260205,1032.91,156.119
0.261572,1039.3,156.919
0.262842,1045.07,157.719
0.264111,1050.63,158.519
0.265479,1055.06,159.319
0.266846,1060.09,160.119
0.268213,1065.03,160.919
0.269482,1068.78,161.719
0.270801,1073.24,162.519
0.272119,1078.68,163.319
0.273535,1082.99,164.119
0.274902,1086.88,164.919
0.276172,1089.5,165.719
0.277441,1092.49,166.519
0.27876,1097.09,167.319
0.280176,1102.74,168.119
0.281494,1107.89,168.919
0.282813,1112.47,169.719
0.284033,1117.37,170.519
0.2854,1123.32,171.319
0.286816,1129.41,172.119
0.288184,1134.47,172.919
0.289453,1139,173.719
0.290723,1143.72,174.519
0.292139,1149.31,175.319
0.293555,1155.01,176.119
0.294873,1160.03,176.919
0.2961914,1164.34,177.719
0.297412,1168.61,178.519
0.298828,1173.92,179.319
0.300195,1179.35,180.119
0.301563,1184.23,180.919
0.302832,1188.15,181.719
0.304102,1183.73,182.519
0.305469,1146.73,183.319
0.306885,1002.95,184.119
0.308252,1005.1,184.919
0.309473,1009.14,185.719
0.310742,1013.14,186.519
0.312109,1014.41,187.319
0.313525,1015.81,188.119
0.314844,1019.93,188.919
0.316113,1024.28,189.719
0.317383,1029.23,190.519
0.31875,1034.32,191.319
0.320166,1039.79,192.119
0.321533,1044.96,192.919
0.322852,1050.17,193.719
0.324121,1055.8,194.519
0.325488,1062.2,195.319
0.326855,1068.75,196.119
0.328223,1074.6,196.919
0.329492,1079.63,197.719
0.330713,1085.17,198.519
0.33208,1091.71,199.319
0.333545,1098.41,200.119
0.334912,1104.55,200.919
0.336182,1109.88,201.719
0.337451,1115.39,202.519
0.338867,1121.78,203.319
0.340234,1128.18,204.119
0.341602,1134.25,204.919
0.342822,1139.4,205.719
0.344092,1144.73,206.519
0.345459,1150.91,207.319
0.346826,1157.13,208.119
0.348193,1162.43,208.919
0.349463,1167.39,209.719
0.350732,1172.05,210.519
0.3521,1177.68,211.319
0.353516,1182.84,212.119
0.354883,1187.62,212.919
0.356152,1191.06,213.719
0.357422,1194.84,214.519
0.358838,1199.87,215.319
0.360205,1204.7,216.119
0.361523,1209.09,216.919
0.362842,1212.98,217.719
0.364062,1215.83,218.519
0.36543,1219.84,219.319
0.366846,1223.77,220.119
0.368213,1227.15,220.919
0.369482,1230.38,221.719
0.370752,1234.3,222.519
0.372168,1239.11,223.319
0.373584,1243.75,224.119
0.374854,1247.15,224.919
0.376172,1250.58,225.719
0.377441,1253.72,226.519
0.37876,1257.38,227.319
0.380176,1261.16,228.119
0.381494,1263.85,228.919
0.382812,1265.99,229.719
0.384082,1268.45,230.519
0.385449,1272.05,231.319
0.386865,1275.36,232.119
0.388232,1273.4,232.919
0.389502,1271.86,233.719
0.390771,1272.9,234.519
0.392139,1275.67,235.319
0.393555,1279.18,236.119
0.394873,1282.14,236.919
0.396143,1284.38,237.719
0.397412,1286.69,238.519
0.398779,1289.42,239.319
0.400195,1286.81,240.119
0.401562,1287.84,240.919
0.402832,1289.83,241.719
0.404102,1287.96,242.519
0.405518,1274.26,243.319
0.406885,1268.01,244.119
0.408154,1265.01,244.919
0.409473,1263.47,245.719
0.410742,1265.25,246.519
0.412109,1268.17,247.319
0.413477,1271.91,248.119
0.414844,1275.59,248.919
0.416113,1278.99,249.719
0.417432,1282.38,250.519
0.418799,1286.62,251.319
0.420215,1290.45,252.119
0.421533,1294.31,252.919
0.422803,1297.51,253.719
0.424072,1300.74,254.519
0.425488,1303.41,255.319
0.426855,1306.49,256.119
0.428223,1302.89,256.919
0.429492,1300.47,257.719
0.430762,1280.2,258.519
0.432129,1282.05,259.319
0.433545,1286.55,260.119
0.434912,1289.43,260.919
0.436182,1292.92,261.719
0.437451,1296.62,262.519
0.438818,1301.43,263.319
0.440186,1305.92,264.119
0.441553,1310.1,264.919
0.442822,1313.66,265.719
0.444092,1316.98,266.519
0.44541,1321.02,267.319
0.446826,1325.29,268.119
0.448145,1328.44,268.919
0.449463,1291.85,269.719
0.450732,1294.46,270.519
0.4521,1299.21,271.319
0.453516,1303.97,272.119
0.4548828,1308.47,272.919
0.456152,1312.34,273.719
0.457422,1316.15,274.519
0.458789,1319.52,275.319
0.460205,1323.89,276.119
0.461523,1327.63,276.919
0.462842,1331.4,277.719
0.464111,1335.38,278.519
0.465479,1339.95,279.319
0.466895,1344.68,280.119
0.468213,1348.94,280.919
0.469482,1352.75,281.719
0.470752,1356.56,282.519
0.472119,1361.03,283.319
0.473535,1365.41,284.119
0.474902,1369.66,284.919
0.476172,1373.29,285.719
0.477441,1377.11,286.519
0.47876,1381.19,287.319
0.480176,1385.3,288.119
0.481543,1387.38,288.919
0.482812,1390.77,289.719
0.484033,1394.05,290.519
0.485449,1398.17,291.319
0.486816,1402.49,292.119
0.488184,1406.59,292.919
0.489502,1410.19,293.719
0.490771,1413.76,294.519
0.492139,1418.11,295.319
0.493506,1422.47,296.119
0.494873,1426.39,296.919
0.496143,1429.91,297.719
0.497412,1433.53,298.519
0.498828,1437.64,299.319
0.500195,1441.72,300.119
0.501562,1445.15,300.919
0.502832,1448.36,301.719
0.504102,1451.8,302.519
0.505469,1455.1,303.319
0.506885,1459.07,304.119
0.508203,1462.77,304.919
0.509473,1466.08,305.719
0.510742,1389.44,306.519
0.512109,1332.42,307.319
0.513525,1333.62,308.119
0.514844,1337.24,308.919
0.516113,1341.31,309.719
0.517383,1345.41,310.519
0.51875,1350.31,311.319
0.520166,1355.57,312.119
0.521533,1360.35,312.919
0.522852,1364.51,313.719
0.524121,1368.63,314.519
0.525488,1373.24,315.319
0.526855,1377.94,316.119
0.528174,1382.16,316.919
0.529492,1386.24,317.719
0.530762,1390.36,318.519
0.532129,1395.11,319.319
0.533545,1399.78,320.119
0.534863,1403.84,320.919
0.536182,1407.37,321.719
0.537451,1410.46,322.519
0.538818,1401.98,323.319
0.540234,1397.72,324.119
0.541553,1400.55,324.919
0.542822,1403.95,325.719
0.544092,1407.74,326.519
0.545459,1411.9,327.319
0.546826,1416.01,328.119
0.548145,1419.93,328.919
0.549463,1423.61,329.719
0.550732,1427.08,330.519
0.5521,1431.25,331.319
0.553516,1435.13,332.119
0.554883,1433.44,332.919
0.556201,1433.59,333.719
0.557422,1436.3,334.519
0.558789,1439.41,335.319
0.560205,1442.93,336.119
0.561523,1446.14,336.919
0.562793,1448.19,337.719
0.564063,1451.02,338.519
0.56543,1454.75,339.319
0.566846,1458.42,340.119
0.568213,1461.81,340.919
0.569482,1464.94,341.719
0.570752,1468.01,342.519
0.572168,1471.77,343.319
0.573535,1475.35,344.119
0.574854,1478.44,344.919
0.576172,1481.64,345.719
0.577441,1484.09,346.519
0.57876,1486.91,347.319
0.580176,1489.85,348.119
0.581494,1492.46,348.919
0.582813,1494.92,349.719
0.584082,1497.28,350.519
0.585449,1500.35,351.319
0.586865,1502.86,352.119
0.588232,1504.56,352.919
0.589502,1504.15,353.719
0.59082,1163.06,354.519
0.592139,1160.82,355.319
0.593506,1163.19,356.119
0.594873,1165.83,356.919
0.596143,1168.56,357.719
0.597412,1171.84,358.519
0.598779,1175.74,359.319
0.600195,1179.42,360.119
0.601562,1183.12,360.919
0.602881,1186.97,361.719
0.604102,1190.25,362.519
0.605469,1194.2,363.319
0.606885,1198.47,364.119
0.608203,1202.22,364.919
0.609473,1205.82,365.719
0.610693,1209.34,366.519
0.612061,1213.33,367.319
0.613477,1217.5,368.119
0.614844,1221.18,368.919
0.616113,1224.66,369.719
0.617432,1228.13,370.519
0.618799,1232.2,371.319
0.620215,1235.81,372.119
0.621533,1239.41,372.919
0.622803,1242.8,373.719
0.624121,1246.19,374.519
0.625488,1250.06,375.319
0.626855,1253.77,376.119
0.628223,1257.24,376.919
0.629492,1260.49,377.719
0.630762,1263.42,378.519
0.632129,1266.86,379.319
0.633545,1270.38,380.119
0.634863,1273.36,380.919
0.636182,1276.32,381.719
0.637451,1279.28,382.519
0.638818,1282.86,383.319
0.640234,1286.22,384.119
0.641553,1289.32,384.919
0.642871,1291.81,385.719
0.644092,1294.28,386.519
0.645459,1297.16,387.319
0.646826,1300.27,388.119
0.648193,1303.16,388.919
0.649463,1305.77,389.719
0.650732,1308.16,390.519
0.6521,1311.27,391.319
0.653516,1314.38,392.119
0.654883,1317.14,392.919
0.656152,1319.3,393.719
0.657422,1321.08,394.519
0.658789,1322.89,395.319
0.660205,1324.79,396.119
0.661523,1327.21,396.919
0.662842,1329.46,397.719
0.664111,1331.72,398.519
0.665479,1334.6,399.319
0.666895,1337.64,400.119
0.668213,1340.58,400.919
0.669482,1343.12,401.719
0.6708008,1345.79,402.519
0.672119,1348.94,403.319
0.673535,1351.8,404.119
0.674902,1353.16,404.919
0.676172,1355.23,405.719
0.677441,1357.42,406.519
0.678809,1360.13,407.319
0.680176,1362.78,408.119
0.681494,1365.2,408.919
0.682812,1367.52,409.719
0.684082,1369.74,410.519
0.685449,1372.01,411.319
0.686816,1374.67,412.119
0.688184,1377.02,412.919
0.689453,1376.18,413.719
0.6907715,1377.38,414.519
0.692139,1379.58,415.319
0.693555,1381.74,416.119
0.694873,1383.69,416.919
0.696143,1385.38,417.719
0.697412,1387.12,418.519
0.698828,1389.13,419.319
0.700195,1391.11,420.119
0.701563,1392.92,420.919
0.702832,1394.39,421.719
0.704102,1395.95,422.519
0.705518,1397.98,423.319
0.706885,1399.94,424.119
0.708252,1397.43,424.919
0.709473,1396.5,425.719
0.710742,1397.05,426.519
0.712109,1398.36,427.319
0.713477,1399.77,428.119
0.714844,1400.93,428.919
0.716113,1401.74,429.719
0.717383,1402.66,430.519
0.718799,1404.22,431.319
0.720166,1405.83,432.119
0.721533,1404.44,432.919
0.722852,1404.82,433.719
0.724121,1405.95,434.519
0.725488,1408.04,435.319
0.726855,1409.54,436.119
0.728174,1410.8,436.919
0.729443,1412.47,437.719
0.730762,1414.57,438.519
0.732129,1417.02,439.319
0.733545,1419.52,440.119
0.734863,1421.49,440.919
0.736182,1423.6,441.719
0.737451,1425.5,442.519
0.738867,1428.05,443.319
0.740234,1430.74,444.119
0.741553,1432.96,444.919
0.742822,1434.78,445.719
0.744092,1436.8,446.519
0.74541,1439.31,447.319
0.746826,1441.9,448.119
0.748145,1444.1,448.919
0.749463,1446.11,449.719
0.750732,1448.02,450.519
0.7521,1450.44,451.319
0.753516,1452.86,452.119
0.754883,1454.87,452.919
0.756201,1456.57,453.719
0.757471,1458.08,454.519
0.758789,1460.39,455.319
0.760205,1462.61,456.119
0.761523,1464.65,456.919
0.762793,1466.21,457.719
0.764063,1468.1,458.519
0.76543,1470.19,459.319
0.766846,1471.62,460.119
0.768213,1458.53,460.919
0.769482,1458.2,461.719
0.770801,1459.59,462.519
0.772119,1461.61,463.319
0.773584,1464.04,464.119
0.774854,1464.61,464.919
0.776172,1465.63,465.719
0.777441,1467.3,466.519
0.77876,1469.54,467.319
0.780176,1471.26,468.119
0.781494,1472.21,468.919
0.782812,1473.8,469.719
0.784082,1475.28,470.519
0.785449,1476.5,471.319
0.786865,1476.35,472.119
0.788184,1477.96,472.919
0.789502,1479.72,473.719
0.790772,1480.7,474.519
0.792139,1482.33,475.319
0.793506,1484.54,476.119
0.794873,1486.57,476.919
0.796143,1488.48,477.719
0.797412,1490.26,478.519
0.798779,1492.64,479.319
0.800195,1492.8,480.119
0.801563,1494.88,480.919
0.802881,1497.08,481.719
0.804102,1498.89,482.519
0.805469,1501.38,483.319
0.806885,1503.76,484.119
0.808203,1505.97,484.919
0.809473,1507.92,485.719
0.810742,1509.74,486.519
0.812061,1512,487.319
0.813525,1514.67,488.119
0.814844,1516.7,488.919
0.816162,1518.67,489.719
0.817383,1520.54,490.519
0.818799,1522.86,491.319
0.820166,1525.16,492.119
0.821533,1527.27,492.919
0.822803,1528.98,493.719
0.824121,1530.81,494.519
0.8254883,1533.11,495.319
0.826904,1535.63,496.119
0.828223,1537.5,496.919
0.829492,1539.4,497.719
0.830762,1541.39,498.519
0.832129,1543.62,499.319
0.833545,1546.24,500.119
0.834912,1548.35,500.919
0.836182,1550.18,501.719
0.837451,1552.03,502.519
0.838818,1554.31,503.319
0.840234,1556.45,504.119
0.841553,1558.2,504.919
0.842822,1560.06,505.719
0.844092,1561.45,506.519
0.845459,1563.65,507.319
0.846826,1565.71,508.119
0.848145,1567.46,508.919
0.849463,1569.06,509.719
0.850732,1570.92,510.519
0.8521,1573.19,511.319
0.853516,1575,512.119
0.854883,1576.85,512.919
0.856201,1578.44,513.719
0.857422,1580,514.519
0.858838,1582.04,515.319
0.860205,1583.86,516.119
0.861572,1585.48,516.919
0.862842,1586.83,517.719
0.864111,1588.15,518.519
0.865479,1590.02,519.319
0.866895,1592.03,520.119
0.868262,1593.56,520.919
0.869482,1594.75,521.719
0.870752,1596.16,522.519
0.872119,1598.01,523.319
0.873535,1599.98,524.119
0.874854,1601.45,524.919
0.876172,1603.22,525.719
0.877441,1604.54,526.519
0.878809,1606.52,527.319
0.880176,1608.5,528.119
0.881543,1610.27,528.919
0.882812,1611.64,529.719
0.884033,1613.05,530.519
0.885449,1615.29,531.319
0.886816,1617.25,532.119
0.888184,1619.1,532.919
0.889502,1620.55,533.719
0.890772,1617.08,534.519
0.892139,1618.77,535.319
0.893555,1620.7,536.119
0.894873,1622.17,536.919
0.896143,1623.59,537.719
0.897412,1625.06,538.519
0.898779,1627.03,539.319
0.900195,1629.17,540.119
0.901563,1631.03,540.919
0.902832,1632.375,541.719
0.904102,1633.84,542.519
0.905469,1635.59,543.319
0.906885,1637.36,544.119
0.908203,1638.74,544.919
0.909473,1640.05,545.719
0.910742,1641.36,546.519
0.912109,1643.18,547.319
0.913477,1644.25,548.119
0.914844,1643.78,548.919
0.916113,1644.7,549.719
0.917383,1645.85,550.519
0.918799,1647.43,551.319
0.920215,1649.19,552.119
0.921533,1650.64,552.919
0.922803,1651.93,553.719
0.924121,1653,554.519
0.925439,1654.63,555.319
0.926855,1655.85,556.119
0.928174,1657.01,556.919
0.929492,1658.37,557.719
0.930713,1659.37,558.519
0.93208,1661.02,559.319
0.933545,1662.96,560.119
0.934863,1664.33,560.919
0.936182,1665.65,561.719
0.937451,1666.99,562.519
0.938867,1668.61,563.319
0.9402344,1670.21,564.119
0.941602,1671.72,564.919
0.942822,1672.8,565.719
0.944092,1674.03,566.519
0.945459,1675.65,567.319
0.946826,1677.07,568.119
0.948193,1678.38,568.919
0.949463,1679.55,569.719
0.950732,1680.61,570.519
0.9521,1681.94,571.319
0.953516,1683.56,572.119
0.954883,1684.79,572.919
0.956152,1685.82,573.719
0.9574219,1686.85,574.519
0.958838,1688.33,575.319
0.9602051,1689.7,576.119
0.961523,1690.88,576.919
0.962793,1691.92,577.719
0.964063,1693,578.519
0.96543,1694.45,579.319
0.966846,1695.9,580.119
0.968213,1697.2,580.919
0.969482,1698.27,581.719
0.970801,1699.41,582.519
0.972168,1700.82,583.319
0.973584,1702.32,584.119
0.974902,1703.38,584.919
0.976172,1704.42,585.719
0.977441,1705.2,586.519
0.97876,1706.45,587.319
0.980176,1707.92,588.119
0.981494,1708.91,588.919
0.982812,1709.8,589.719
0.984082,1710.37,590.519
0.985449,1711.67,591.319
0.986865,1712.96,592.119
0.988184,1714.06,592.919
0.989502,1714.98,593.719
0.990771,1715.87,594.519
0.992139,1717.35,595.319
0.993555,1718.72,596.119
0.994873,1719.77,596.919
0.996143,1720.61,597.719
0.997412,1721.49,598.519
0.998779,1722.7,599.319
1.0002,1723.97,600.119
1.00156,1720.86,600.919
1.00283,1720.9,601.719
1.0041,1721.26,602.519
1.00552,1722.28,603.319
1.00688,1723.34,604.119
1.0082,1724.3,604.919
1.00947,1724.92,605.719
1.01074,1725.52,606.519
1.01206,1726.66,607.319
1.01348,1727.98,608.119
1.01484,1728.85,608.919
1.01611,1729.66,609.719
1.01738,1729.98,610.519
1.0188,1730.71,611.319
1.02017,1731.28,612.119
1.02153,1729.69,612.919
1.02285,1728.62,613.719
1.02407,1728.51,614.519
1.02549,1729.48,615.319
1.02686,1730.27,616.119
1.02822,1730.92,616.919
1.02949,1731.28,617.719
1.03076,1731.73,618.519
1.03213,1732.98,619.319
1.03354,1734.22,620.119
1.03491,1735.07,620.919
1.03618,1735.8,621.719
1.03745,1736.62,622.519
1.03882,1737.74,623.319
1.04019,1738.92,624.119
1.04155,1739.99,624.919
1.04282,1740.46,625.719
1.04409,1739.71,626.519
1.04546,1740.81,627.319
1.04683,1741.61,628.119
1.04814,1742.23,628.919
1.04946,1742.76,629.719
1.05073,1743.25,630.519
1.0521,1743.99,631.319
1.05352,1744.98,632.119
1.05488,1745.56,632.919
1.05615,1745.77,633.719
1.05742,1746.2,634.519
1.05884,1746.94,635.319
1.06021,1747.93,636.119
1.06157,1748.5,636.919
1.06284,1748.88,637.719
1.06411,1749.41,638.519
1.06548,1750.3,639.319
1.06685,1750.86,640.119
1.06821,1750.75,640.919
1.06948,1750.51,641.719
1.07075,1750.56,642.519
1.07212,1751.07,643.319
1.07354,1751.54,644.119
1.0749,1751.86,644.919
1.07617,1751.91,645.719
1.07744,1752.03,646.519
1.07881,1752.6,647.319
1.08018,1753.05,648.119
1.08154,1753.58,648.919
1.08281,1753.66,649.719
1.08408,1753.84,650.519
1.0854,1754.46,651.319
1.08682,1755.08,652.119
1.08818,1755.47,652.919
1.0895,1755.51,653.719
1.09077,1755.34,654.519
1.09214,1755.66,655.319
1.09355,1755.92,656.119
1.09492,1755.7,656.919
1.09619,1755.03,657.719
1.09746,1754.14,658.519
1.09883,1750.98,659.319
1.1002,1748.89,660.119
1.10151,1747.71,660.919
1.10283,1746.59,661.719
1.1041,1745.83,662.519
1.10552,1745.5,663.319
1.10688,1745.44,664.119
1.10825,1744.98,664.919
1.10947,1743.2,665.719
1.11074,1738.3,666.519
1.11211,1735.99,667.319
1.11353,1732.82,668.119
1.11484,1729.96,668.919
1.11611,1727.69,669.719
1.11738,1725.8,670.519
1.11875,1724.02,671.319
1.12017,1717.66,672.119
1.12153,1712.68,672.919
1.1228,1708.95,673.719
1.12417,1046.2,674.519
1.12549,1018.34,675.319
1.12686,1015.07,676.119
1.12817,1014.41,676.919
1.12949,1014.78,677.719
1.13071,1015.5,678.519
1.13208,1016.98,679.319
1.13354,1018.88,680.119
1.13486,1020.46,680.919
1.13618,1021.98,681.719
1.13745,1023.66,682.519
1.13882,1025.8,683.319
1.14023,1027.91,684.119
1.14155,1029.7,684.919
1.14282,1031.36,685.719
1.14409,1033.13,686.519
1.14546,1035.13,687.319
1.14683,1037.29,688.119
1.14819,1039.34,688.919
1.14946,1041.01,689.719
1.15073,1042.66,690.519
1.1521,1044.94,691.319
1.15352,1046.9,692.119
1.15488,1048.78,692.919
1.15615,1050.46,693.719
1.15742,1052.08,694.519
1.15884,1054.12,695.319
1.16021,1055.94,696.119
1.16152,1057.86,696.919
1.16284,1059.43,697.719
1.16411,1061.1,698.519
1.16543,1062.94,699.319
1.16685,1064.95,700.119
1.16821,1066.73,700.919
1.16953,1068.44,701.719
1.1708,1069.78,702.519
1.17217,1071.62,703.319
1.17354,1073.33,704.119
1.17485,1074.86,704.919
1.17617,1076.38,705.719
1.17739,1077.77,706.519
1.17881,1079.62,707.319
1.18018,1081.34,708.119
1.18154,1083.02,708.919
1.18281,1084.24,709.719
1.18408,1085.65,710.519
1.18545,1086.75,711.319
1.18687,1088.52,712.119
1.18818,1089.8,712.919
1.18945,1090.94,713.719
1.19077,1092.35,714.519
1.19214,1093.79,715.319
1.19351,1095.34,716.119
1.19487,1096.93,716.919
1.19614,1098.08,717.719
1.19741,1099.47,718.519
1.19883,1101.15,719.319
1.2002,1102.61,720.119
1.20156,1104.19,720.919
1.20283,1105.29,721.719
1.2041,1106.49,722.519
1.20552,1108.12,723.319
1.20684,1109.55,724.119
1.2082,1110.89,724.919
1.20947,1111.97,725.719
1.21074,1113.06,726.519
1.21206,1114.54,727.319
1.21348,1116.17,728.119
1.21484,1117.33,728.919
1.21611,1118.44,729.719
1.21738,1119.67,730.519
1.2188,1121.23,731.319
1.22017,1122.58,732.119
1.22158,1124.08,732.919
1.2228,1124.98,733.719
1.22412,1126.29,734.519
1.22549,1127.71,735.319
1.22686,1129.13,736.119
1.22822,1130.34,736.919
1.22949,1131.14,737.719
1.23076,1132.18,738.519
1.23213,1133.57,739.319
1.23354,1134.92,740.119
1.23486,1136.09,740.919
1.23618,1137.07,741.719
1.23745,1138.15,742.519
1.23882,1139.37,743.319
1.24023,1140.66,744.119
1.24155,1141.64,744.919
1.24282,1142.49,745.719
1.24409,1143.23,746.519
1.24546,1144.3,747.319
1.24683,1145.51,748.119
1.24814,1146.44,748.919
1.24941,1147.2,749.719
1.25068,1148.07,750.519
1.2521,1149.53,751.319
1.25352,1150.67,752.119
1.25483,1151.64,752.919
1.25615,1152.54,753.719
1.25742,1153.51,754.519
1.25884,1154.65,755.319
1.26021,1155.69,756.119
1.26157,1156.56,756.919
1.26284,1157.32,757.719
1.26411,1158.17,758.519
1.26548,1159.37,759.319
1.26689,1160.49,760.119
1.26826,1161.53,760.919
1.26948,1162.18,761.719
1.27075,1162.96,762.519
1.27217,1164.05,763.319
1.27354,1165.27,764.119
1.2749,1166.14,764.919
1.27617,1166.85,765.719
1.27744,1167.53,766.519
1.27881,1168.33,767.319
1.28018,1169.34,768.119
1.28149,1170.05,768.919
1.28276,1170.74,769.719
1.28403,1171.39,770.519
1.2854,1172.48,771.319
1.28682,1173.6,772.119
1.28818,1174.35,772.919
1.28945,1175.18,773.719
1.29077,1175.9,774.519
1.29214,1176.83,775.319
1.29355,1177.82,776.119
1.29487,1178.5,776.919
1.29619,1179.19,777.719
1.29741,1179.7,778.519
1.29883,1180.74,779.319
1.30024,1181.83,780.119
1.30151,1182.51,780.919
1.30283,1183.34,781.719
1.3041,1184.11,782.519
1.30547,1185.11,783.319
1.30688,1186.01,784.119
1.30825,1186.8,784.919
1.30947,1187.25,785.719
1.31074,1187.86,786.519
1.31211,1188.86,787.319
1.31348,1189.98,788.119
1.31484,1190.8,788.919
1.31611,1191.54,789.719
1.31738,1192.14,790.519
1.31875,1193.21,791.319
1.32017,1194.26,792.119
1.32153,1195.03,792.919
1.32285,1195.69,793.719
1.32407,1196.11,794.519
1.32549,1197.16,795.319
1.32686,1197.85,796.119
1.32817,1198.66,796.919
1.32949,1199.31,797.719
1.33071,1199.78,798.519
1.33208,1200.82,799.319
1.33354,1201.93,800.119
1.33491,1202.67,800.919
1.33618,1203.12,801.719
1.33745,1203.66,802.519
1.33887,1204.55,803.319
1.34023,1205.45,804.119
1.34155,1206.1,804.919
1.34282,1206.67,805.719
1.34409,1207.34,806.519
1.34546,1208.04,807.319
1.34683,1208.54,808.119
1.34819,1209.41,808.919
1.34946,1209.81,809.719
1.35073,1210.23,810.519
1.3521,1211.23,811.319
1.35352,1212.08,812.119
1.35488,1212.99,812.919
1.3562,1213.52,813.719
1.35747,1214.09,814.519
1.35884,1215.13,815.319
1.36021,1216.17,816.119
1.36152,1216.9,816.919
1.36284,1217.61,817.719
1.36406,1218.22,818.519
1.36548,1219.09,819.319
1.36685,1220.07,820.119
1.36821,1220.89,820.919
1.36953,1221.5,821.719
1.37075,1222.14,822.519
1.37212,1223.08,823.319
1.37354,1224.08,824.119
1.3749,1224.89,824.919
1.37617,1225.51,825.719
1.37744,1226.09,826.519
1.37876,1227.01,827.319
1.38018,1228.16,828.119
1.38149,1228.85,828.919
1.38281,1229.46,829.719
1.38408,1230.01,830.519
1.38545,1230.99,831.319
1.38687,1231.91,832.119
1.38818,1232.65,832.919
1.3895,1233.29,833.719
1.39077,1233.91,834.519
1.39214,1234.84,835.319
1.39351,1235.78,836.119
1.39487,1236.54,836.919
1.39614,1237.18,837.719
1.39741,1237.85,838.519
1.39878,1238.74,839.319
1.4002,1239.73,840.119
1.40156,1240.37,840.919
1.40283,1240.92,841.719
1.4041,1241.39,842.519
1.40547,1242.13,843.319
1.40688,1243.09,844.119
1.4082,1243.71,844.919
1.40947,1244.07,845.719
1.41074,1244.56,846.519
1.41211,1245.56,847.319
1.41348,1246.29,848.119
1.41484,1247.06,848.919
1.41611,1247.65,849.719
1.41738,1248.26,850.519
1.4188,1249.26,851.319
1.42017,1249.98,852.119
1.42153,1250.81,852.919
1.42285,1251.3,853.719
1.42412,1251.78,854.519
1.42549,1252.65,855.319
1.42686,1253.45,856.119
1.42822,1254.08,856.919
1.42949,1252.86,857.719
1.43076,1252.35,858.519
1.43213,1252.89,859.319
1.43354,1253.27,860.119
1.43491,1253.73,860.919
1.43618,1253.86,861.719
1.43745,1254,862.519
1.43882,1254.64,863.319
1.44019,1255.06,864.119
1.44155,1255.57,864.919
1.44282,1255.3,865.719
1.44409,1254.86,866.519
1.44546,1255.17,867.319
1.44683,1255.59,868.119
1.44814,1255.73,868.919
1.44946,1255.83,869.719
1.45073,1255.7,870.519
1.4521,1256.05,871.319
1.45352,1256.46,872.119
1.45488,1256.61,872.919
1.45615,1256.4,873.719
1.45742,1256.35,874.519
1.45884,1256.71,875.319
1.46021,1257.11,876.119
1.46157,1257.24,876.919
1.46284,1257.11,877.719
1.46411,1257.15,878.519
1.46548,1257.46,879.319
1.46689,1257.73,880.119
1.46821,1257.88,880.919
1.46948,1257.79,881.719
1.47075,1256.7,882.519
1.47212,1257.01,883.319
1.47354,1257.07,884.119
1.4749,1257.08,884.919
1.47617,1256.98,885.719
1.47744,1256.91,886.519
1.47876,1257.35,887.319
1.48018,1257.79,888.119
1.48149,1258.01,888.919
1.48281,1258.1,889.719
1.48403,1258.16,890.519
1.4854,1258.66,891.319
1.48682,1259.22,892.119
1.48818,1259.68,892.919
1.4895,1259.72,893.719
1.49077,1259.82,894.519
1.49214,1260.46,895.319
1.49355,1261.05,896.119
1.49487,1261.43,896.919
1.49614,1261.7,897.719
1.49741,1261.92,898.519
1.49883,1262.75,899.319
1.5002,1263.2,900.119
1.50156,1263.73,900.919
1.50283,1263.85,901.719
1.5041,1264.06,902.519
1.50552,1264.67,903.319
1.50688,1264.97,904.119
1.50825,1265.28,904.919
1.50952,1265.14,905.719
1.51074,1265.06,906.519
1.51211,1265.44,907.319
1.51353,1266.11,908.119
1.51484,1266.28,908.919
1.51611,1266.53,909.719
1.51738,1266.71,910.519
1.51875,1267.44,911.319
1.52021,1267.99,912.119
1.52153,1268.42,912.919
1.52285,1268.54,913.719
1.52407,1268.65,914.519
1.52549,1269.19,915.319
1.52686,1269.74,916.119
1.52822,1270.08,916.919
1.52949,1270.27,917.719
1.53076,1270.42,918.519
1.53208,1270.97,919.319
1.53354,1271.66,920.119
1.53486,1272.04,920.919
1.53618,1272.29,921.719
1.53745,1272.47,922.519
1.53882,1273.03,923.319
1.54023,1273.45,924.119
1.54155,1273.66,924.919
1.54282,1273.71,925.719
1.54409,1273.86,926.519
1.54546,1274.23,927.319
1.54683,1274.91,928.119
1.54819,1275.24,928.919
1.54946,1275.46,929.719
1.55073,1275.72,930.519
1.5521,1276.28,931.319
1.55352,1276.93,932.119
1.55488,1277.18,932.919
1.5562,1277.38,933.719
1.55747,1277.57,934.519
1.55884,1278.09,935.319
1.56021,1278.29,936.119
1.56152,1278.56,936.919
1.56279,1278.69,937.719
1.56411,1278.94,938.519
1.56543,1279.33,939.319
1.56685,1279.94,940.119
1.56821,1280.4,940.919
1.56948,1280.45,941.719
1.57075,1280.45,942.519
1.57217,1280.9,943.319
1.57354,1281.32,944.119
1.57485,1281.37,944.919
1.57617,1281.29,945.719
1.57739,1281.28,946.519
1.57876,1281.76,947.319
1.58018,1282.17,948.119
1.58149,1282.31,948.919
1.58281,1282.36,949.719
1.58408,1282.53,950.519
1.58545,1282.87,951.319
1.58687,1283.3,952.119
1.58823,1283.4,952.919
1.5895,1282.72,953.719
1.59077,1282.56,954.519
1.59214,1282.93,955.319
1.59355,1283.33,956.119
1.59487,1283.6,956.919
1.59614,1283.57,957.719
1.59741,1283.6,958.519
1.59878,1284.02,959.319
1.6002,1284.46,960.119
1.60156,1284.81,960.919
1.60283,1284.85,961.719
1.6041,1285,962.519
1.60552,1285.55,963.319
1.60688,1286.03,964.119
1.6082,1286.36,964.919
1.60947,1286.49,965.719
1.61074,1286.6,966.519
1.61211,1287.16,967.319
1.61353,1287.81,968.119
1.61484,1288.05,968.919
1.61611,1288.15,969.719
1.61738,1288.28,970.519
1.6188,1288.75,971.319
1.62021,1289.22,972.119
1.62153,1289.4,972.919
1.6228,1289.33,973.719
1.62412,1289.5,974.519
1.62549,1289.98,975.319
1.62686,1290.4,976.119
1.62822,1290.61,976.919
1.62949,1290.65,977.719
1.63076,1290.78,978.519
1.63213,1291.25,979.319
1.63354,1291.81,980.119
1.63491,1292.02,980.919
1.63618,1291.96,981.719
1.63745,1292.06,982.519
1.63882,1292.38,983.319
1.64019,1292.64,984.119
1.64155,1292.93,984.919
1.64282,1292.85,985.719
1.64409,1292.76,986.519
1.64546,1293.26,987.319
1.64683,1293.7,988.119
1.64819,1293.91,988.919
1.64941,1293.87,989.719
1.65073,1294.08,990.519
1.6521,1294.45,991.319
1.65352,1294.91,992.119
1.65488,1295.14,992.919
1.65615,1295.07,993.719
1.65742,1294.94,994.519
1.65884,1295.21,995.319
1.66021,1295.55,996.119
1.66157,1295.59,996.919
1.66284,1295.48,997.719
1.66411,1295.45,998.519
1.66548,1295.78,999.319
1.66689,1296.13,1000.12
1.66821,1296.29,1000.92
1.66948,1296.24,1001.72
1.67075,1296.02,1002.52
1.67212,1296.3,1003.32
1.67354,1296.45,1004.12
1.6749,1296.42,1004.92
1.67617,1296.18,1005.72
1.67744,1296.14,1006.52
1.67876,1296.21,1007.32
1.68018,1296.36,1008.12
1.68149,1296.5,1008.92
1.68281,1296.55,1009.72
1.68408,1296.51,1010.52
1.6854,1296.81,1011.32
1.68682,1297.21,1012.12
1.68818,1297.39,1012.92
1.6895,1297.28,1013.72
1.69072,1297.1,1014.52
1.69214,1297.42,1015.32
1.69355,1297.78,1016.12
1.69487,1297.98,1016.92
1.69614,1297.86,1017.72
1.69741,1297.97,1018.52
1.69883,1298.34,1019.32
1.7002,1298.64,1020.12
1.70156,1298.78,1020.92
1.70283,1298.79,1021.72
1.7041,1298.7,1022.52
1.70552,1298.96,1023.32
1.70688,1299.35,1024.12
1.7082,1299.25,1024.92
1.70952,1299.11,1025.72
1.71074,1298.94,1026.52
1.71211,1298.9,1027.32
1.71353,1298.87,1028.12
1.71484,1298.36,1028.92
1.71611,1297.12,1029.72
1.71738,1296.04,1030.52
1.7188,1295.36,1031.32
1.72017,1294.76,1032.12
1.72153,1294.19,1032.92
1.7228,1293.39,1033.72
1.72412,1292.97,1034.52
1.72549,1292.73,1035.32
1.72686,1292.72,1036.12
1.72822,1292.5,1036.92
1.72949,1292.34,1037.72
1.73071,1292.05,1038.52
1.73213,1292.26,1039.32
1.73354,1292.7,1040.12
1.73491,1292.84,1040.92
1.73618,1292.73,1041.72
1.73745,1292.47,1042.52
1.73887,1292.97,1043.32
1.74023,1293.15,1044.12
1.74155,1293.14,1044.92
1.74282,1293.11,1045.72
1.74409,1290.85,1046.52
1.74546,1277.86,1047.32
1.74683,1276.45,1048.12
1.74819,1275.41,1048.92
1.74946,1274.55,1049.72
1.75073,1273.84,1050.52
1.7521,1273.56,1051.32
1.75352,1273.49,1052.12
1.75488,1273.25,1052.92
1.7562,1272.93,1053.72
1.75742,1272.52,1054.52
1.75884,1272.75,1055.32
1.76021,1272.98,1056.12
1.76152,1273.21,1056.92
1.76279,1273.14,1057.72
1.76406,1273.09,1058.52
1.76543,1273.63,1059.32
1.76685,1274.19,1060.12
1.76816,1274.37,1060.92
1.76948,1274.53,1061.72
1.77075,1274.62,1062.52
1.77212,1275.06,1063.32
1.77354,1275.48,1064.12
1.7749,1275.67,1064.92
1.77617,1275.89,1065.72
1.77744,1275.86,1066.52
1.77876,1276.21,1067.32
1.78018,1276.74,1068.12
1.78149,1277,1068.92
1.78276,1277.09,1069.72
1.78408,1277.39,1070.52
1.78545,1277.83,1071.32
1.78687,1278.5,1072.12
1.78823,1278.81,1072.92
1.7895,1278.85,1073.72
1.79077,1278.92,1074.52
1.79214,1279.3,1075.32
1.79351,1279.84,1076.12
1.79487,1280.13,1076.92
1.79614,1280.25,1077.72
1.79741,1280.43,1078.52
1.79878,1280.9,1079.32
1.80024,1281.5,1080.12
1.80156,1281.72,1080.92
1.80283,1281.76,1081.72
1.8041,1281.74,1082.52
1.80547,1280.17,1083.32
1.80688,1278.38,1084.12
1.8082,1277.26,1084.92
1.80947,1276.15,1085.72
1.81074,1275.19,1086.52
1.81206,1274.87,1087.32
1.81348,1274.88,1088.12
1.81484,1274.62,1088.92
1.81616,1274.18,1089.72
1.81743,1274,1090.52
1.8188,1274.11,1091.32
1.82021,1274.26,1092.12
1.82153,1273.97,1092.92
1.8228,1273.71,1093.72
1.82407,1273.25,1094.52
1.82549,1273.22,1095.32
1.82686,1273.16,1096.12
1.82822,1273.07,1096.92
1.82949,1272.85,1097.72
1.83076,1272.89,1098.52
1.83213,1273.02,1099.32
1.83354,1273.44,1100.12
1.83491,1273.61,1100.92
1.83618,1273.57,1101.72
1.83745,1273.47,1102.52
1.83882,1273.76,1103.32
1.84019,1274,1104.12
1.84155,1274.11,1104.92
1.84282,1274.05,1105.72
1.84409,1273.85,1106.52
1.84546,1274.06,1107.32
1.84683,1274.41,1108.12
1.84814,1274.59,1108.92
1.84946,1274.62,1109.72
1.85073,1274.7,1110.52
1.8521,1275.16,1111.32
1.85352,1275.58,1112.12
1.85488,1275.82,1112.92
1.85615,1275.73,1113.72
1.85742,1275.76,1114.52
1.85884,1276.23,1115.32
1.86021,1276.61,1116.12
1.86157,1276.84,1116.92
1.86284,1276.83,1117.72
1.86411,1277,1118.52
1.86548,1277.56,1119.32
1.86685,1278.06,1120.12
1.86821,1278.39,1120.92
1.86953,1278.05,1121.72
1.87075,1277.45,1122.52
1.87212,1277.65,1123.32
1.87354,1277.8,1124.12
1.8749,1277.75,1124.92
1.87617,1277.4,1125.72
1.87739,1276.94,1126.52
1.87876,1276.77,1127.32
1.88018,1273.35,1128.12
1.88154,1270.66,1128.92
1.88281,1268.44,1129.72
1.88403,1266.39,1130.52
1.8854,1265.04,1131.32
1.88687,1263.93,1132.12
1.88818,1262.67,1132.92
1.8895,1261.68,1133.72
1.89072,1260.77,1134.52
1.89214,1260.57,1135.32
1.89355,1260.47,1136.12
1.89487,1260.37,1136.92
1.89614,1260.32,1137.72
1.89741,1260.21,1138.52
1.89883,1260.67,1139.32
1.9002,1261.06,1140.12
1.90151,1261.4,1140.92
1.90283,1261.69,1141.72
1.9041,1261.76,1142.52
1.90552,1262.17,1143.32
1.90688,1262.48,1144.12
1.9082,1262.74,1144.92
1.90947,1262.69,1145.72
1.91079,1262.76,1146.52
1.91211,1263.15,1147.32
1.91348,1263.71,1148.12
1.91484,1264.04,1148.92
1.91611,1264.13,1149.72
1.91738,1264.34,1150.52
1.9188,1264.68,1151.32
1.92021,1265.25,1152.12
1.92153,1265.44,1152.92
1.92285,1265.66,1153.72
1.92412,1265.48,1154.52
1.92549,1265.96,1155.32
1.92686,1266.58,1156.12
1.92817,1266.81,1156.92
1.92949,1266.88,1157.72
1.93071,1267.1,1158.52
1.93208,1267.61,1159.32
1.93354,1268.13,1160.12
1.93486,1268.35,1160.92
1.93613,1268.11,1161.72
1.93745,1268.2,1162.52
1.93887,1268.51,1163.32
1.94023,1268.75,1164.12
1.94155,1269.03,1164.92
1.94282,1268.97,1165.72
1.94409,1269.26,1166.52
1.94546,1269.51,1167.32
1.94683,1269.94,1168.12
1.94814,1270.21,1168.92
1.94946,1270.26,1169.72
1.95073,1270.32,1170.52
1.9521,1270.61,1171.32
1.95352,1271.17,1172.12
1.95488,1271.3,1172.92
1.95615,1271.45,1173.72
1.95742,1271.56,1174.52
1.95884,1272.16,1175.32
1.96021,1272.73,1176.12
1.96152,1273.03,1176.92
1.96284,1273.25,1177.72
1.96406,1273.38,1178.52
1.96543,1273.82,1179.32
1.96685,1274.26,1180.12
1.96821,1274.37,1180.92
1.96948,1274.71,1181.72
1.97075,1274.82,1182.52
1.97217,1275.35,1183.32
1.97354,1275.86,1184.12
1.9749,1276.14,1184.92
1.97612,1276.32,1185.72
1.97744,1276.52,1186.52
1.97876,1276.99,1187.32
1.98018,1277.62,1188.12
1.98149,1277.89,1188.92
1.98276,1277.9,1189.72
1.98408,1278.17,1190.52
1.98545,1278.47,1191.32
1.98687,1279,1192.12
1.98823,1279.33,1192.92
1.9895,1279.46,1193.72
1.99077,1279.57,1194.52
1.99214,1280.01,1195.32
1.99351,1280.53,1196.12
1.99487,1280.88,1196.92
1.99614,1280.98,1197.72
1.99741,1281.12,1198.52
1.99771,1281.31,1198.7