File: Data/Thesis_Samples_Data/Flexural_Cast_3/Flexural_Cast_3.csv
"File Path: C:\Users\Lab User\Desktop\Will\Thesis Tests\Test Run 9 04-8-22 15 25 28 PM\DAQ- Crosshead, … - (Timed).txt   ",,
Test: MTS EM Flexure (3-Point Bend) - Will 1,,
Test Run: Test Run 9,,
Date: 4/8/2022 3:23:26 PM,,
,,
,,
Crosshead ,Load ,Time
mm,N,sec
4.88E-05,5.98596,0.02
9.77E-05,5.85177,0.06
9.77E-05,5.97937,0.1
0.000146484,5.96213,0.14
0.000146484,6.03816,0.18
0.000195312,5.99929,0.22
0.000244141,5.85771,0.26
0.000292969,6.19894,0.3
0.000341797,6.11489,0.34
0.000390625,6.16114,0.38
0.000488281,6.22404,0.42
0.000537109,6.28102,0.46
0.000634766,6.61692,0.5
0.000732422,6.6434,0.54
0.000830078,6.75073,0.58
0.000927734,7.04977,0.62
0.001025391,7.03493,0.66
0.001123047,7.27635,0.7
0.001220703,7.39299,0.74
0.001269531,7.6734,0.78
0.001367187,7.80833,0.82
0.001464844,7.81067,0.86
0.0015625,8.06745,0.9
0.001660156,8.13123,0.94
0.001757812,8.37813,0.98
0.001806641,8.59221,1.02
0.001904297,8.5334,1.06
0.002001953,8.84829,1.1
0.002099609,8.90025,1.14
0.002197266,9.02886,1.18
0.002294922,9.19181,1.22
0.00234375,9.23592,1.26
0.002441406,9.49608,1.3
0.002539063,9.78113,1.34
0.002636719,9.69843,1.38
0.002734375,10.0038,1.42
0.002832031,10.0883,1.46
0.002880859,10.3671,1.5
0.002978516,10.3572,1.54
0.003076172,10.4636,1.58
0.003173828,10.7759,1.62
0.003271484,10.8081,1.66
0.003320313,10.9295,1.7
0.003417969,11.0865,1.74
0.003515625,11.111,1.78
0.003613281,11.5547,1.82
0.003662109,11.4317,1.86
0.003759766,11.7499,1.9
0.003857422,11.7805,1.94
0.003955078,11.9577,1.98
0.004003906,12.2808,2.02
0.004101562,12.233,2.06
0.004199219,12.4031,2.1
0.004296875,12.5619,2.14
0.004345703,12.6047,2.18
0.00444336,12.7839,2.22
0.004492188,12.9201,2.26
0.004589844,13.0598,2.3
0.0046875,13.2738,2.34
0.004785156,13.2945,2.38
0.004833984,13.5942,2.42
0.00493164,13.6457,2.46
0.005029297,13.8391,2.5
0.005078125,13.8453,2.54
0.005175781,13.9611,2.58
0.00522461,14.3331,2.62
0.005322266,14.3821,2.66
0.005419922,14.4854,2.7
0.00546875,14.6324,2.74
0.005566406,14.5999,2.78
0.005615234,14.9534,2.82
0.00571289,14.9059,2.86
0.005810547,15.0898,2.9
0.005859375,15.2312,2.94
0.005957031,15.3209,2.98
0.006054688,15.502,3.02
0.006103516,15.6034,3.06
0.006201172,15.6686,3.1
0.00625,15.9591,3.14
0.006347656,15.9121,3.18
0.006396484,16.1099,3.22
0.006494141,16.2162,3.26
0.006542969,16.4342,3.3
0.006640625,16.6054,3.34
0.006689453,16.5997,3.38
0.006787109,16.8234,3.42
0.006835938,16.9367,3.46
0.006933594,17.0126,3.5
0.00703125,17.2302,3.54
0.007080078,17.1564,3.58
0.007177734,17.3871,3.62
0.007226563,17.5192,3.66
0.007324219,17.5952,3.7
0.007373047,17.7778,3.74
0.007470703,17.936,3.78
0.007568359,18.0742,3.82
0.007617187,18.1952,3.86
0.007714843,18.2224,3.9
0.007763672,18.5416,3.94
0.007861328,18.4932,3.98
0.007958984,18.6861,4.02
0.008007813,18.831,4.06
0.008105469,18.8539,4.1
0.008203125,19.1685,4.14
0.008251953,19.1482,4.18
0.00834961,19.3724,4.22
0.008447266,19.5264,4.26
0.008544922,19.6387,4.3
0.00859375,19.8445,4.34
0.008691406,19.852,4.38
0.008789062,20.062,4.42
0.008886719,20.3264,4.46
0.008984375,20.2588,4.5
0.009082031,20.5911,4.54
0.009130859,20.6476,4.58
0.009228515,20.8325,4.62
0.009326171,20.9907,4.66
0.009423828,20.9528,4.7
0.009521485,21.1561,4.74
0.009570313,21.4099,4.78
0.009667969,21.4275,4.82
0.009765625,21.6316,4.86
0.009814453,21.6257,4.9
0.00991211,21.9216,4.94
0.0100098,21.9835,4.98
0.0100586,22.1111,5.02
0.01015625,22.3061,5.06
0.0102539,22.3411,5.1
0.0103027,22.5113,5.14
0.01040039,22.6574,5.18
0.010498,22.5886,5.22
0.0105957,22.984,5.26
0.0106445,22.9844,5.3
0.0107422,23.2355,5.34
0.0108398,23.2088,5.38
0.0109375,23.4137,5.42
0.0109863,23.6747,5.46
0.011084,23.6154,5.5
0.0111328,23.6855,5.54
0.0112305,23.8765,5.58
0.0113281,23.8713,5.62
0.011377,24.2337,5.66
0.0114746,24.1391,5.7
0.0115723,24.4204,5.74
0.0116211,24.5358,5.78
0.01171875,24.6117,5.82
0.0117676,24.8194,5.86
0.0118652,24.7956,5.9
0.0119141,24.9095,5.94
0.0120117,25.0753,5.98
0.0121094,25.0485,6.02
0.0121582,25.3719,6.06
0.0122559,25.4075,6.1
0.0123047,25.5475,6.14
0.0124023,25.666,6.18
0.0125,25.6397,6.22
0.0125488,26.0851,6.26
0.0126465,26.0105,6.3
0.0126953,26.0805,6.34
0.012793,26.1864,6.38
0.0128418,26.2768,6.42
0.0129395,26.5142,6.46
0.0129883,26.5837,6.5
0.0130859,26.6621,6.54
0.0131348,26.9001,6.58
0.0132324,26.7906,6.62
0.01328125,27.0957,6.66
0.0133789,27.0091,6.7
0.0134277,27.2725,6.74
0.01352539,27.4529,6.78
0.0135742,27.4491,6.82
0.0136719,27.5923,6.86
0.0137207,27.7411,6.9
0.01381836,27.8204,6.94
0.013916,27.9801,6.98
0.0139648,27.9544,7.02
0.0140625,28.1677,7.06
0.0141113,28.2771,7.1
0.014209,28.3507,7.14
0.0143066,28.5548,7.18
0.0143555,28.5466,7.22
0.0144531,28.7902,7.26
0.014502,28.9425,7.3
0.0145996,28.9229,7.34
0.0146973,29.3018,7.38
0.0147461,29.1351,7.42
0.01484375,29.4369,7.46
0.0149414,29.4303,7.5
0.0149902,29.5783,7.54
0.01508789,29.8621,7.58
0.0151855,29.8646,7.62
0.0152832,29.9551,7.66
0.015332,30.1824,7.7
0.0154297,30.1823,7.74
0.0155273,30.5633,7.78
0.015625,30.4194,7.82
0.0157227,30.5005,7.86
0.0157715,30.7766,7.9
0.01586914,30.8567,7.94
0.0159668,31.0923,7.98
0.0160645,31.088,8.02
0.0161133,31.2919,8.06
0.0162109,31.5082,8.1
0.0163086,31.4406,8.14
0.0163574,31.7347,8.18
0.0164551,31.7823,8.22
0.0165527,31.9869,8.26
0.0166504,32.0622,8.3
0.016748,32.1056,8.34
0.0167969,32.4234,8.38
0.0168945,32.4449,8.42
0.0169922,32.672,8.46
0.017041,32.7995,8.5
0.0171387,32.8264,8.54
0.0172363,33.0478,8.58
0.017334,33.1487,8.62
0.0173828,33.176,8.66
0.0174805,33.3123,8.7
0.0175781,33.3313,8.74
0.017627,33.6702,8.78
0.0177246,33.6572,8.82
0.0177734,33.8419,8.86
0.0178711,34.121,8.9
0.01796875,33.9848,8.94
0.0180176,34.1515,8.98
0.0181152,34.2833,9.02
0.0182129,34.3579,9.06
0.0182617,34.7075,9.1
0.0183594,34.626,9.14
0.018457,34.7849,9.18
0.01850586,34.9169,9.22
0.0186035,35.1147,9.26
0.0186523,35.2875,9.3
0.01875,35.2316,9.34
0.0187988,35.4069,9.38
0.0188965,35.559,9.42
0.0189453,35.5947,9.46
0.019043,35.8908,9.5
0.0191406,35.8724,9.54
0.0191895,36.0609,9.58
0.01928711,36.134,9.62
0.0193359,36.1031,9.66
0.0194336,36.3919,9.7
0.0194824,36.4812,9.74
0.0195801,36.6769,9.78
0.0196289,36.7306,9.82
0.0197266,36.7642,9.86
0.01982422,37.0065,9.9
0.019873,37.1309,9.94
0.0199707,37.2082,9.98
0.0200195,37.3262,10.02
0.0201172,37.2942,10.06
0.020166,37.6465,10.1
0.0202637,37.5283,10.14
0.0203125,37.7529,10.18
0.0204102,37.9159,10.22
0.020459,37.9876,10.26
0.0205566,38.1071,10.3
0.0206055,38.2348,10.34
0.0207031,38.3616,10.38
0.02080078,38.6093,10.42
0.0208496,38.5217,10.46
0.0209473,38.7648,10.5
0.0209961,38.8482,10.54
0.0210938,39.1113,10.58
0.0211914,39.222,10.62
0.0212402,39.2183,10.66
0.02133789,39.4823,10.7
0.0214355,39.5745,10.74
0.0214844,39.5738,10.78
0.021582,39.7745,10.82
0.0216797,39.7125,10.86
0.0217285,40.2081,10.9
0.0218262,40.1843,10.94
0.0219238,40.2564,10.98
0.0219727,40.4988,11.02
0.0220703,40.5535,11.06
0.022168,40.7476,11.1
0.0222656,40.9679,11.14
0.0223633,41.0269,11.18
0.0224121,41.3018,11.22
0.0225098,41.3109,11.26
0.0226074,41.5427,11.3
0.0227051,41.6287,11.34
0.0227539,41.824,11.38
0.0228516,42.0484,11.42
0.0229492,41.9253,11.46
0.0230469,42.1665,11.5
0.0230957,42.3261,11.54
0.0231934,42.4297,11.58
0.023291,42.7206,11.62
0.0233887,42.6016,11.66
0.0234375,42.9491,11.7
0.0235352,43.0926,11.74
0.0236328,43.1358,11.78
0.0236816,43.3597,11.82
0.0237793,43.4065,11.86
0.023877,43.5704,11.9
0.0239258,43.7325,11.94
0.0240234,43.7582,11.98
0.0241211,44.0556,12.02
0.0241699,44.1786,12.06
0.0242676,44.268,12.1
0.0243652,44.4301,12.14
0.02446289,44.515,12.18
0.0245117,44.8182,12.22
0.0246094,44.7945,12.26
0.0246582,44.9595,12.3
0.02475586,45.1141,12.34
0.0248535,45.1427,12.38
0.0249023,45.3956,12.42
0.025,45.4967,12.46
0.0250977,45.612,12.5
0.0251465,45.8439,12.54
0.02524414,45.7627,12.58
0.025293,46.0745,12.62
0.0253906,46.0779,12.66
0.0254395,46.2729,12.7
0.0255371,46.498,12.74
0.0256348,46.407,12.78
0.0256836,46.6335,12.82
0.02578125,46.8681,12.86
0.0258301,46.9173,12.9
0.0259277,47.1631,12.94
0.0259766,47.1264,12.98
0.0260742,47.3596,13.02
0.026123,47.4984,13.06
0.0262207,47.6135,13.1
0.0263184,47.8193,13.14
0.0263672,47.84,13.18
0.0264648,48.0874,13.22
0.0265137,48.2177,13.26
0.0266113,48.2098,13.3
0.0266602,48.5784,13.34
0.0267578,48.4843,13.38
0.0268066,48.6649,13.42
0.0269043,48.7125,13.46
0.0269531,48.848,13.5
0.0270508,49.0853,13.54
0.02709961,49.0762,13.58
0.0271973,49.2511,13.62
0.0272461,49.3462,13.66
0.0273438,49.4246,13.7
0.0273926,49.7911,13.74
0.0274902,49.7968,13.78
0.02758789,49.9754,13.82
0.0276367,50.1176,13.86
0.0277344,50.1716,13.9
0.0277832,50.4736,13.94
0.02788086,50.4115,13.98
0.0279785,50.7352,14.02
0.0280273,50.8573,14.06
0.028125,50.8266,14.1
0.0281738,51.2395,14.14
0.0282715,51.3244,14.18
0.0283691,51.4335,14.22
0.02841797,51.6218,14.26
0.0285156,51.5761,14.3
0.0286133,51.9399,14.34
0.0287109,52.0032,14.38
0.0287598,52.18,14.42
0.0288574,52.3372,14.46
0.0289551,52.401,14.5
0.0290527,52.7723,14.54
0.0291016,52.8563,14.58
0.0291992,52.9628,14.62
0.0292969,53.2885,14.66
0.02939453,53.248,14.7
0.0294434,53.5571,14.74
0.029541,53.5404,14.78
0.0296387,53.7687,14.82
0.0297363,54.0325,14.86
0.0297852,54.1296,14.9
0.0298828,54.3094,14.94
0.0299805,54.4944,14.98
0.0300293,54.5369,15.02
0.030127,54.8432,15.06
0.03022461,54.7275,15.1
0.0302734,55.0571,15.14
0.0303711,55.1726,15.18
0.0304687,55.3381,15.22
0.0305664,55.5639,15.26
0.0306152,55.6033,15.3
0.03071289,55.8875,15.34
0.0308105,56.0607,15.38
0.0308594,56.0554,15.42
0.030957,56.4324,15.46
0.03100586,56.3718,15.5
0.0311035,56.5829,15.54
0.0312012,56.7668,15.58
0.03125,56.8519,15.62
0.0313477,57.2105,15.66
0.0314453,57.1998,15.7
0.0314941,57.3696,15.74
0.0315918,57.5759,15.78
0.0316406,57.6715,15.82
0.03173828,57.9623,15.86
0.0318359,57.9449,15.9
0.0318848,58.1179,15.94
0.0319824,58.3235,15.98
0.03203125,58.4625,16.02
0.0321289,58.7125,16.06
0.0322266,58.7391,16.1
0.0322754,59.0185,16.14
0.032373,59.0778,16.18
0.0324219,59.2,16.22
0.0325195,59.3145,16.26
0.0325684,59.4415,16.3
0.032666,59.6157,16.34
0.0327148,60.009,16.38
0.0328125,59.931,16.42
0.0329102,60.2272,16.46
0.032959,60.2925,16.5
0.03305664,60.4058,16.54
0.0331055,60.628,16.58
0.0332031,60.6345,16.62
0.033252,61.0102,16.66
0.03334961,61.0626,16.7
0.0333984,61.2299,16.74
0.0334961,61.4175,16.78
0.0335449,61.5212,16.82
0.0336426,61.7123,16.86
0.0337402,61.9175,16.9
0.0337891,62.0076,16.94
0.0338379,62.2528,16.98
0.0339355,62.3019,17.02
0.0340332,62.5905,17.06
0.03408203,62.6841,17.1
0.0341797,62.7623,17.14
0.0342285,63.2496,17.18
0.0343262,63.0241,17.22
0.034375,63.334,17.26
0.0344727,63.52,17.3
0.0345703,63.7144,17.34
0.0346191,64.0043,17.38
0.0347168,63.9676,17.42
0.0348145,64.2998,17.46
0.0348633,64.4744,17.5
0.0349609,64.5717,17.54
0.0350586,64.8427,17.58
0.0351074,64.9168,17.62
0.0352051,65.2411,17.66
0.0353027,65.4355,17.7
0.03540039,65.4238,17.74
0.0354492,65.8132,17.78
0.0355469,65.925,17.82
0.0356445,66.1467,17.86
0.0357422,66.3588,17.9
0.0358398,66.5274,17.94
0.0358887,66.8906,17.98
0.03598633,66.9708,18.02
0.036084,67.1683,18.06
0.0361816,67.4564,18.1
0.0362793,67.4863,18.14
0.0363281,67.8501,18.18
0.0364258,67.9268,18.22
0.0365234,68.123,18.26
0.0366211,68.4494,18.3
0.0366699,68.5444,18.34
0.0367676,68.8931,18.38
0.0368652,68.9636,18.42
0.0369629,69.2891,18.46
0.03701172,69.5522,18.5
0.0371094,69.5136,18.54
0.037207,69.8293,18.58
0.0372559,69.9898,18.62
0.0373535,70.2472,18.66
0.0374512,70.4377,18.7
0.0375,70.489,18.74
0.0375977,70.8278,18.78
0.0376953,70.9942,18.82
0.0377441,71.2731,18.86
0.0378418,71.4483,18.9
0.0379395,71.5735,18.94
0.03798828,71.9244,18.98
0.0380859,71.9349,19.02
0.0381348,72.1157,19.06
0.0382324,72.4127,19.1
0.0383301,72.5374,19.14
0.0383789,72.8777,19.18
0.0384766,72.9385,19.22
0.0385742,73.0995,19.26
0.038623,73.4356,19.3
0.0387207,73.4279,19.34
0.0387695,73.7835,19.38
0.0388672,73.8773,19.42
0.0389648,74.1287,19.46
0.03901367,74.4843,19.5
0.0391113,74.5017,19.54
0.0391602,74.7463,19.58
0.0392578,74.8851,19.62
0.0393555,75.1704,19.66
0.0394043,75.44,19.7
0.039502,75.5044,19.74
0.0395508,75.7925,19.78
0.0396484,75.9779,19.82
0.0396973,76.0487,19.86
0.0397949,76.4024,19.9
0.0398438,76.5138,19.94
0.0399414,76.7069,19.98
0.0399902,76.8792,20.02
0.0400879,76.9813,20.06
0.0401367,77.3623,20.1
0.0402344,77.5142,20.14
0.0402832,77.8133,20.18
0.0403809,77.8677,20.22
0.0404297,77.9981,20.26
0.0405273,78.4654,20.3
0.040625,78.5242,20.34
0.0406738,78.7572,20.38
0.0407715,78.9278,20.42
0.0408203,79.1616,20.46
0.04091797,79.4955,20.5
0.0409668,79.5637,20.54
0.0410645,79.8544,20.58
0.0411621,80.2189,20.62
0.0412109,80.1859,20.66
0.0413086,80.5191,20.7
0.0414062,80.7686,20.74
0.0414551,81.0025,20.78
0.0415527,81.3519,20.82
0.04165039,81.3879,20.86
0.0416992,81.7373,20.9
0.0417969,81.9925,20.94
0.0418945,82.2744,20.98
0.0419922,82.561,21.02
0.042041,82.6906,21.06
0.0421387,82.9927,21.1
0.0422363,83.2927,21.14
0.042334,83.4074,21.18
0.0423828,83.7487,21.22
0.0424805,83.9545,21.26
0.0425781,84.4309,21.3
0.04267578,84.5577,21.34
0.0427734,84.8025,21.38
0.0428223,85.1847,21.42
0.0429199,85.3502,21.46
0.0430176,85.7061,21.5
0.0431152,85.8421,21.54
0.0432129,86.1236,21.58
0.04326172,86.5868,21.62
0.0433594,86.5632,21.66
0.043457,87.0368,21.7
0.0435059,87.1659,21.74
0.0436035,87.4232,21.78
0.0437012,87.7942,21.82
0.04375,87.8747,21.86
0.0438477,88.2264,21.9
0.0439453,88.5341,21.94
0.044043,88.6107,21.98
0.0440918,88.9424,22.02
0.0441895,88.9988,22.06
0.0442383,89.5312,22.1
0.0443359,89.6225,22.14
0.0444336,89.7068,22.18
0.0444824,90.2581,22.22
0.04458008,90.3817,22.26
0.0446289,90.659,22.3
0.0447266,90.926,22.34
0.0448242,90.9779,22.38
0.0449219,91.4839,22.42
0.0449707,91.6904,22.46
0.0450684,91.9689,22.5
0.0451172,92.3492,22.54
0.0452148,92.3453,22.58
0.04526367,92.809,22.62
0.0453613,92.9524,22.66
0.045459,93.225,22.7
0.0455078,93.5254,22.74
0.0456055,93.6663,22.78
0.0456543,94.0948,22.82
0.045752,94.2085,22.86
0.0458496,94.5206,22.9
0.0458984,94.8965,22.94
0.0459961,94.9859,22.98
0.0460449,95.3922,23.02
0.0461426,95.5011,23.06
0.0461914,95.842,23.1
0.0462891,96.2191,23.14
0.0463867,96.2845,23.18
0.0464355,96.5978,23.22
0.0465332,96.978,23.26
0.04658203,97.1379,23.3
0.0466797,97.5289,23.34
0.0467285,97.5914,23.38
0.0468262,97.9805,23.42
0.046875,98.2661,23.46
0.0469727,98.4779,23.5
0.0470215,98.8337,23.54
0.0471191,98.9164,23.58
0.04716797,99.3166,23.62
0.0472656,99.6476,23.66
0.0473145,99.8168,23.7
0.0474121,100.244,23.74
0.0475098,100.365,23.78
0.0475586,100.823,23.82
0.0476562,100.96,23.86
0.0477051,101.293,23.9
0.0478027,101.688,23.94
0.04790039,101.97,23.98
0.0479492,102.21,24.02
0.0480469,102.599,24.06
0.0481445,102.767,24.1
0.04819336,103.296,24.14
0.048291,103.364,24.18
0.0483887,103.747,24.22
0.0484375,104.114,24.26
0.0485352,104.39,24.3
0.0486328,104.819,24.34
0.0487305,105.091,24.38
0.0487793,105.502,24.42
0.048877,105.832,24.46
0.0489746,106.087,24.5
0.0490723,106.582,24.54
0.0491211,106.846,24.58
0.04921875,107.221,24.62
0.0493164,107.581,24.66
0.0494141,107.756,24.7
0.04951172,108.277,24.74
0.0496094,108.626,24.78
0.0496582,109.125,24.82
0.0497559,109.4,24.86
0.0498535,109.586,24.9
0.0499512,110.157,24.94
0.05,110.355,24.98
0.0500977,110.714,25.02
0.0501465,111.076,25.06
0.05024414,111.267,25.1
0.0503418,111.75,25.14
0.0503906,112.045,25.18
0.0504883,112.425,25.22
0.0505859,112.806,25.26
0.0506348,112.962,25.3
0.0507324,113.416,25.34
0.0508301,113.738,25.38
0.0509277,114.092,25.42
0.0510254,114.602,25.46
0.0510742,114.774,25.5
0.0511719,115.211,25.54
0.0512207,115.606,25.58
0.0513184,115.819,25.62
0.051416,116.319,25.66
0.0514648,116.535,25.7
0.0515625,117.002,25.74
0.0516602,117.269,25.78
0.051709,117.513,25.82
0.0518066,117.943,25.86
0.05185547,118.131,25.9
0.0519531,118.555,25.94
0.052002,118.937,25.98
0.0520996,119.172,26.02
0.0521484,119.663,26.06
0.0522461,119.862,26.1
0.0523437,120.3,26.14
0.0523926,120.714,26.18
0.0524902,120.864,26.22
0.05258789,121.489,26.26
0.0526367,121.611,26.3
0.0527344,121.946,26.34
0.0527832,122.371,26.38
0.05288086,122.552,26.42
0.0529297,123.093,26.46
0.0530273,123.331,26.5
0.0530762,123.792,26.54
0.05317383,124.149,26.58
0.0532715,124.344,26.62
0.0533203,124.875,26.66
0.053418,124.993,26.7
0.0534668,125.525,26.74
0.0535645,125.888,26.78
0.0536133,126.063,26.82
0.0537109,126.576,26.86
0.0537598,126.872,26.9
0.05385742,127.271,26.94
0.0539062,127.658,26.98
0.0540039,127.867,27.02
0.0540527,128.414,27.06
0.05415039,128.846,27.1
0.054248,129.108,27.14
0.0542969,129.566,27.18
0.0543945,129.702,27.22
0.0544922,130.393,27.26
0.054541,130.614,27.3
0.0546387,130.973,27.34
0.0546875,131.507,27.38
0.0547852,131.616,27.42
0.0548828,132.225,27.46
0.0549316,132.707,27.5
0.0550293,133.068,27.54
0.055127,133.63,27.58
0.0552246,133.904,27.62
0.0552734,134.51,27.66
0.0553711,134.873,27.7
0.05546875,135.394,27.74
0.0555664,135.982,27.78
0.0556152,136.259,27.82
0.0557129,136.723,27.86
0.0558105,137.31,27.9
0.0559082,137.673,27.94
0.055957,138.235,27.98
0.0560547,138.482,28.02
0.0561523,139.065,28.06
0.05625,139.463,28.1
0.0562988,139.842,28.14
0.0563965,140.598,28.18
0.05649414,140.769,28.22
0.0565918,141.423,28.26
0.0566406,141.851,28.3
0.0567383,142.301,28.34
0.0568359,142.865,28.38
0.0569336,143.265,28.42
0.0569824,143.736,28.46
0.0570801,144.339,28.5
0.0571777,144.537,28.54
0.0572266,145.294,28.58
0.0573242,145.524,28.62
0.0574219,146.003,28.66
0.0574707,146.535,28.7
0.0575684,146.861,28.74
0.057666,147.397,28.78
0.0577148,147.741,28.82
0.0578125,148.272,28.86
0.0578613,148.853,28.9
0.057959,149.033,28.94
0.0580566,149.681,28.98
0.05810547,150.017,29.02
0.0582031,150.597,29.06
0.058252,151.09,29.1
0.0583496,151.373,29.14
0.0584473,151.892,29.18
0.0584961,152.486,29.22
0.0585937,152.806,29.26
0.0586426,153.362,29.3
0.0587402,153.618,29.34
0.05883789,154.293,29.38
0.0588867,154.748,29.42
0.0589844,155.085,29.46
0.0590332,155.663,29.5
0.05913086,155.935,29.54
0.0591797,156.564,29.58
0.0592773,156.828,29.62
0.0593262,157.334,29.66
0.0594238,157.872,29.7
0.0594727,158.234,29.74
0.0595703,158.674,29.78
0.059668,159.216,29.82
0.0597168,159.744,29.86
0.0598145,160.199,29.9
0.05986328,160.548,29.94
0.0599609,161.159,29.98
0.0600098,161.509,30.02
0.0601074,162.024,30.06
0.06015625,162.613,30.1
0.0602539,162.844,30.14
0.0603027,163.525,30.18
0.0604004,163.919,30.22
0.06044922,164.276,30.26
0.0605469,164.808,30.3
0.0605957,165.234,30.34
0.0606934,165.983,30.38
0.0607422,166.352,30.42
0.0608398,166.682,30.46
0.0608887,167.297,30.5
0.0609863,167.719,30.54
0.061084,168.322,30.58
0.0611328,168.854,30.62
0.0612305,169.229,30.66
0.0612793,170.108,30.7
0.061377,170.356,30.74
0.06147461,170.958,30.78
0.0615234,171.526,30.82
0.0616211,171.961,30.86
0.0617187,172.7,30.9
0.0617676,173.179,30.94
0.0618652,173.785,30.98
0.0619629,174.287,31.02
0.0620117,174.793,31.06
0.0621094,175.46,31.1
0.062207,175.996,31.14
0.0623047,176.618,31.18
0.0624023,177.319,31.22
0.0624512,177.882,31.26
0.0625488,178.572,31.3
0.0626465,179.003,31.34
0.06274414,179.804,31.38
0.0628418,180.328,31.42
0.0628906,180.86,31.46
0.0629883,181.584,31.5
0.0630859,182.179,31.54
0.0631348,182.756,31.58
0.0632324,183.42,31.62
0.0633301,183.869,31.66
0.0634277,184.669,31.7
0.06347656,185.234,31.74
0.0635742,185.716,31.78
0.063623,186.348,31.82
0.0637207,186.793,31.86
0.0638184,187.452,31.9
0.063916,188.119,31.94
0.0639648,188.715,31.98
0.0640625,189.265,32.02
0.0641602,189.786,32.06
0.064209,190.543,32.1
0.0643066,191.026,32.14
0.0644043,191.751,32.18
0.0644531,192.457,32.22
0.0645508,192.704,32.26
0.06464844,193.511,32.3
0.0646973,194.112,32.34
0.06479492,194.647,32.38
0.0648437,195.413,32.42
0.0649414,195.691,32.46
0.0649902,196.488,32.5
0.0650879,197.017,32.54
0.0651855,197.624,32.58
0.0652344,198.302,32.62
0.065332,198.68,32.66
0.0654297,199.462,32.7
0.0654785,200.001,32.74
0.0655762,200.403,32.78
0.065625,201.218,32.82
0.0657227,201.73,32.86
0.0657715,202.376,32.9
0.0658691,202.796,32.94
0.0659668,203.458,32.98
0.0660156,204.263,33.02
0.06611328,204.576,33.06
0.0661621,205.353,33.1
0.0662598,205.898,33.14
0.0663086,206.472,33.18
0.0664063,207.09,33.22
0.0664551,207.563,33.26
0.0665527,208.282,33.3
0.0666016,208.882,33.34
0.06669922,209.292,33.38
0.066748,210.001,33.42
0.0668457,210.482,33.46
0.0669434,211.257,33.5
0.0669922,211.714,33.54
0.0670898,212.211,33.58
0.0671387,213.034,33.62
0.0672363,213.631,33.66
0.0672852,214.214,33.7
0.0673828,214.73,33.74
0.06743164,215.217,33.78
0.0675293,215.959,33.82
0.0675781,216.458,33.86
0.0676758,217.267,33.9
0.0677734,217.79,33.94
0.0678223,218.512,33.98
0.0679199,219.103,34.02
0.06801758,219.775,34.06
0.0680664,220.48,34.1
0.0681641,221.121,34.14
0.0682617,221.757,34.18
0.0683594,222.658,34.22
0.0684082,223.097,34.26
0.0685059,223.804,34.3
0.0686035,224.725,34.34
0.0687012,225.32,34.38
0.06875,226.067,34.42
0.0688477,226.81,34.46
0.0689453,227.574,34.5
0.0689941,228.32,34.54
0.0690918,228.64,34.58
0.0691895,229.568,34.62
0.0692871,230.335,34.66
0.0693848,231.272,34.7
0.06943359,231.855,34.74
0.0695312,232.335,34.78
0.0696289,233.329,34.82
0.0697266,233.98,34.86
0.0697754,234.533,34.9
0.069873,235.258,34.94
0.0699707,235.713,34.98
0.0700684,236.76,35.02
0.070166,237.495,35.06
0.0702148,238.032,35.1
0.0703125,238.882,35.14
0.0704102,239.334,35.18
0.070459,240.044,35.22
0.0705566,240.803,35.26
0.0706543,241.463,35.3
0.0707031,242.283,35.34
0.0708008,242.554,35.38
0.0708984,243.442,35.42
0.0709473,244.24,35.46
0.0710449,244.647,35.5
0.0711426,245.416,35.54
0.0711914,245.829,35.58
0.0712891,246.335,35.62
0.0713867,247.076,35.66
0.0714355,247.782,35.7
0.0715332,248.408,35.74
0.0716309,248.989,35.78
0.0717285,249.851,35.82
0.0717773,250.486,35.86
0.071875,250.909,35.9
0.0719238,251.639,35.94
0.0720215,252.298,35.98
0.07207031,252.769,36.02
0.072168,253.379,36.06
0.0722168,253.912,36.1
0.0723145,254.603,36.14
0.0724121,255.347,36.18
0.0724609,255.958,36.22
0.0725586,256.672,36.26
0.07265625,257.074,36.3
0.0727051,258.014,36.34
0.0728027,258.449,36.38
0.0728516,259.14,36.42
0.0729492,259.649,36.46
0.072998,260.4,36.5
0.0730957,260.786,36.54
0.0731445,261.545,36.58
0.07324219,262.144,36.62
0.073291,262.874,36.66
0.07338867,263.133,36.7
0.0734375,264.042,36.74
0.0735352,264.509,36.78
0.073584,265.284,36.82
0.0736816,265.857,36.86
0.0737793,266.361,36.9
0.0738281,267.294,36.94
0.073877,267.61,36.98
0.07397461,268.611,37.02
0.0740723,268.997,37.06
0.0741211,269.58,37.1
0.0742187,270.344,37.14
0.0743164,270.863,37.18
0.0743652,271.558,37.22
0.0744629,272.332,37.26
0.0745117,272.761,37.3
0.0746094,273.472,37.34
0.07470703,274.187,37.38
0.0747559,275.009,37.42
0.0748535,275.613,37.46
0.0749512,276.374,37.5
0.075,277.22,37.54
0.0750977,277.762,37.58
0.0751953,278.498,37.62
0.0752441,279.293,37.66
0.0753418,280.01,37.7
0.07543945,280.984,37.74
0.0755371,281.573,37.78
0.0755859,282.284,37.82
0.0756836,283.171,37.86
0.0757813,283.818,37.9
0.0758789,284.585,37.94
0.0759277,285.227,37.98
0.07602539,285.751,38.02
0.076123,286.631,38.06
0.0762207,287.297,38.1
0.0762695,288.343,38.14
0.0763672,288.854,38.18
0.0764648,289.498,38.22
0.0765625,290.484,38.26
0.07661133,291.035,38.3
0.076709,291.836,38.34
0.0768066,292.671,38.38
0.0768555,293.169,38.42
0.0769531,293.859,38.46
0.0770508,294.554,38.5
0.0770996,295.249,38.54
0.0771973,296.016,38.58
0.0772949,296.744,38.62
0.07734375,297.629,38.66
0.0774414,298.129,38.7
0.0775391,298.994,38.74
0.0776367,299.641,38.78
0.0776855,300.287,38.82
0.0777832,300.936,38.86
0.0778809,301.538,38.9
0.07792969,302.362,38.94
0.07802734,302.922,38.98
0.0780762,303.504,39.02
0.0781738,304.086,39.06
0.0782227,304.584,39.1
0.0783203,305.322,39.14
0.078418,306.045,39.18
0.0784668,306.493,39.22
0.0785645,307.33,39.26
0.07861328,307.969,39.3
0.0787109,308.578,39.34
0.0788086,309.334,39.38
0.0789062,310.055,39.42
0.0789551,310.731,39.46
0.0790039,311.194,39.5
0.0791016,311.775,39.54
0.0791504,312.653,39.58
0.07924805,313.079,39.62
0.0793457,313.839,39.66
0.0793945,314.464,39.7
0.0794922,315.228,39.74
0.079541,315.9,39.78
0.0796387,316.238,39.82
0.0796875,317.05,39.86
0.0797852,317.662,39.9
0.079834,318.435,39.94
0.07993164,319.158,39.98
0.0799805,319.652,40.02
0.0800781,320.409,40.06
0.080127,321.097,40.1
0.0802246,321.717,40.14
0.0802734,322.425,40.18
0.0803711,322.749,40.22
0.0804199,323.549,40.26
0.08051758,324.188,40.3
0.0805664,324.996,40.34
0.08066406,325.547,40.38
0.0807617,326.355,40.42
0.0808105,327.243,40.46
0.0809082,327.88,40.5
0.080957,328.399,40.54
0.0810547,329.158,40.58
0.0811035,329.783,40.62
0.0812012,330.314,40.66
0.08125,331.112,40.7
0.0813477,331.902,40.74
0.0814453,332.775,40.78
0.081543,333.384,40.82
0.0815918,334.272,40.86
0.0816895,335.017,40.9
0.0817871,335.71,40.94
0.08183594,336.634,40.98
0.0819336,337.191,41.02
0.0820312,338.035,41.06
0.0821289,338.988,41.1
0.0821777,339.576,41.14
0.0822754,340.472,41.18
0.082373,341.303,41.22
0.0824707,342.425,41.26
0.08256836,343.202,41.3
0.082666,343.717,41.34
0.0827637,344.773,41.38
0.0828125,345.375,41.42
0.0829102,346.022,41.46
0.0830078,346.708,41.5
0.0830566,347.194,41.54
0.0831543,348.083,41.58
0.083252,348.91,41.62
0.0833496,349.753,41.66
0.0834473,350.554,41.7
0.0834961,351.012,41.74
0.0835938,351.898,41.78
0.0836914,352.591,41.82
0.0837402,353.314,41.86
0.0838379,354.262,41.9
0.0839355,354.63,41.94
0.0840332,355.616,41.98
0.084082,356.359,42.02
0.0841797,357.034,42.06
0.0842773,357.889,42.1
0.0843262,358.37,42.14
0.0844238,359.123,42.18
0.0845215,360.003,42.22
0.08461914,360.808,42.26
0.084668,361.488,42.3
0.0847656,361.931,42.34
0.0848145,362.783,42.38
0.0849121,363.238,42.42
0.0849609,363.908,42.46
0.0850586,364.671,42.5
0.0851563,365.237,42.54
0.08520508,365.683,42.58
0.0853027,366.175,42.62
0.0854004,367.087,42.66
0.0854492,367.807,42.7
0.0855469,367.975,42.74
0.0855957,368.339,42.78
0.0856934,367.327,42.82
0.0857422,367.454,42.86
0.0858398,367.97,42.9
0.0858887,368.234,42.94
0.0859863,368.943,42.98
0.086084,369.705,43.02
0.0861328,370.362,43.06
0.0862305,370.755,43.1
0.0862793,371.409,43.14
0.086377,372.172,43.18
0.0864258,372.905,43.22
0.08652344,373.377,43.26
0.08662109,374.169,43.3
0.0866699,374.845,43.34
0.0867676,375.385,43.38
0.0868164,376.292,43.42
0.0869141,376.772,43.46
0.0869629,377.491,43.5
0.0870605,377.787,43.54
0.0871582,378.699,43.58
0.08720703,379.371,43.62
0.0872559,379.851,43.66
0.0873535,380.733,43.7
0.0874512,381.226,43.74
0.0875,382.118,43.78
0.0875977,382.775,43.82
0.0876953,383.562,43.86
0.0877441,384.466,43.9
0.0878418,384.799,43.94
0.0878906,385.673,43.98
0.0879883,168.871,44.02
0.0881348,140.955,44.06
0.0881836,132.21,44.1
0.0882813,127.8,44.14
0.0883789,125.157,44.18
0.0884277,122.603,44.22
0.08852539,120.663,44.26
0.0885742,119.239,44.3
0.0886719,118.2,44.34
0.0887695,117.423,44.38
0.0888672,116.95,44.42
0.088916,116.1,44.46
0.0890137,115.707,44.5
0.08911133,115.253,44.54
0.089209,114.679,44.58
0.08925781,114.113,44.62
0.0893555,113.507,44.66
0.0894531,113.279,44.7
0.0895508,112.716,44.74
0.0895996,112.363,44.78
0.0896973,112.154,44.82
0.0897949,111.764,44.86
0.08984375,111.673,44.9
0.0899414,111.482,44.94
0.0900391,111.253,44.98
0.0900879,111.202,45.02
0.0901855,110.901,45.06
0.0902832,110.826,45.1
0.0903809,110.573,45.14
0.09042969,110.37,45.18
0.0905273,110.156,45.22
0.09057617,109.784,45.26
0.0906738,109.489,45.3
0.0907715,109.336,45.34
0.0908203,109.109,45.38
0.090918,108.879,45.42
0.0910156,108.547,45.46
0.0911133,108.397,45.5
0.09116211,107.964,45.54
0.0912598,107.675,45.58
0.0913086,107.555,45.62
0.0914062,107.228,45.66
0.0915039,106.989,45.7
0.0915527,106.595,45.74
0.0916504,106.218,45.78
0.0916992,106.019,45.82
0.0917969,105.629,45.86
0.09189453,105.41,45.9
0.0919434,105.185,45.94
0.092041,104.839,45.98
0.0920898,104.789,46.02
0.0921875,104.33,46.06
0.0922852,104.19,46.1
0.092334,104.073,46.14
0.0924316,103.805,46.18
0.09248047,103.842,46.22
0.0925781,103.253,46.26
0.092627,103.187,46.3
0.0927246,102.978,46.34
0.0927734,102.799,46.38
0.0928711,102.595,46.42
0.0929688,102.217,46.46
0.0930176,101.888,46.5
0.0931152,101.383,46.54
0.0931641,100.861,46.58
0.0932617,100.692,46.62
0.0933105,100.361,46.66
0.0934082,100.093,46.7
0.093457,99.6809,46.74
0.0935547,99.1394,46.78
0.0936035,99.0338,46.82
0.0937012,98.6394,46.86
0.09375,98.5111,46.9
0.0938477,98.2302,46.94
0.0938965,98.0822,46.98
0.0939941,97.9527,47.02
0.094043,97.6486,47.06
0.0941406,97.3111,47.1
0.0941895,97.1079,47.14
0.0942871,96.6693,47.18
0.0943848,96.5681,47.22
0.0944336,96.1605,47.26
0.0945312,95.9643,47.3
0.0945801,95.7527,47.34
0.0946777,95.2976,47.38
0.0947754,95.0691,47.42
0.0948242,94.7448,47.46
0.0949219,94.4265,47.5
0.0950195,94.251,47.54
0.0950684,93.717,47.58
0.095166,93.7093,47.62
0.0952637,93.3663,47.66
0.0953613,93.1849,47.7
0.0954102,92.9676,47.74
0.0955078,92.5849,47.78
0.0956055,92.4186,47.82
0.0956543,92.1955,47.86
0.095752,91.8986,47.9
0.0958496,91.7872,47.94
0.0959473,91.4948,47.98
0.0959961,91.5307,48.02
0.0960937,91.2398,48.06
0.0961914,91.004,48.1
0.0962402,91.0345,48.14
0.0963379,90.7123,48.18
0.0964355,90.5516,48.22
0.0965332,90.4456,48.26
0.096582,90.3109,48.3
0.0966797,90.2052,48.34
0.0967773,89.8514,48.38
0.0968262,89.7271,48.42
0.0969238,89.528,48.46
0.0970215,89.3179,48.5
0.0970703,89.3658,48.54
0.097168,88.8545,48.58
0.0972656,88.8738,48.62
0.0973633,88.6121,48.66
0.0974121,88.3793,48.7
0.0975098,88.2556,48.74
0.0976074,88.1259,48.78
0.0976563,88.0122,48.82
0.0977539,87.8648,48.86
0.0978027,87.6361,48.9
0.0979004,87.6287,48.94
0.097998,87.3375,48.98
0.0980957,87.2763,49.02
0.0981445,87.1289,49.06
0.0982422,86.938,49.1
0.098291,87.0125,49.14
0.0983887,86.6596,49.18
0.0984375,86.6683,49.22
0.0985352,86.4286,49.26
0.0986328,86.2834,49.3
0.0986816,86.456,49.34
0.0987793,86.1093,49.38
0.0988281,86.1084,49.42
0.0989258,86.0675,49.46
0.0989746,85.9594,49.5
0.0990723,85.9831,49.54
0.0991211,85.8189,49.58
0.0992187,85.8723,49.62
0.0993164,85.8076,49.66
0.0993652,85.604,49.7
0.0994629,85.5918,49.74
0.0995117,85.4873,49.78
0.0996094,85.4913,49.82
0.0996582,85.467,49.86
0.09975586,85.2385,49.9
0.0998047,85.216,49.94
0.0999023,85.1764,49.98
0.0999512,85.061,50.02
0.100049,84.8798,50.06
0.100098,84.442,50.1
0.100195,84.3935,50.14
0.100293,84.103,50.18
0.1003418,83.8293,50.22
0.100439,83.5956,50.26
0.100488,83.1965,50.3
0.100586,83.0563,50.34
0.100635,82.3992,50.38
0.100732,81.4603,50.42
0.100781,80.5364,50.46
0.100879,79.2527,50.5
0.100928,77.6012,50.54
0.101025,75.369,50.58
0.101123,72.0112,50.62
0.101221,69.084,50.66
0.10127,66.5225,50.7
0.101367,64.5376,50.74
0.101416,62.3963,50.78
0.101514,60.5595,50.82
0.101611,58.878,50.86
0.10166,57.2568,50.9
0.101758,56.3832,50.94
0.101855,55.4433,50.98
0.101953,54.6489,51.02
0.102051,53.9538,51.06
0.1021,53.314,51.1
0.102197,52.8399,51.14
0.102295,52.3092,51.18
0.102393,51.925,51.22
0.10249,51.6884,51.26
0.102588,51.245,51.3
0.102637,51.0065,51.34
0.102734,50.7401,51.38
0.102832,50.4414,51.42
0.10293,50.4096,51.46
0.102979,49.98,51.5
0.103076,49.807,51.54
0.103174,49.5992,51.58
0.103223,49.3727,51.62
0.10332,49.369,51.66
0.103418,49.0458,51.7
0.103516,48.9009,51.74
0.103564,48.8055,51.78
0.103662,48.5237,51.82
0.10376,48.5748,51.86
0.103857,48.1389,51.9
0.103955,48.1773,51.94
0.104004,48.0156,51.98
0.104102,47.672,52.02
0.104199,47.7178,52.06
0.104297,47.4952,52.1
0.104346,47.335,52.14
0.104395,47.0766,52.18
0.104492,46.8051,52.22
0.10459,46.9028,52.26
0.104687,46.6818,52.3
0.104736,46.5124,52.34
0.104834,46.3811,52.38
0.104932,46.11,52.42
0.10498,46.1347,52.46
0.105078,45.8225,52.5
0.105127,45.7427,52.54
0.105225,45.653,52.58
0.105322,45.4906,52.62
0.105371,45.5196,52.66
0.105469,45.2475,52.7
0.105566,45.137,52.74
0.105615,45.1633,52.78
0.105713,44.7805,52.82
0.105762,44.767,52.86
0.105811,44.5757,52.9
0.105908,44.6019,52.94
0.106006,44.611,52.98
0.106055,44.3945,53.02
0.106152,44.4096,53.06
0.10625,44.3585,53.1
0.106299,44.1715,53.14
0.106396,44.1066,53.18
0.106445,43.8568,53.22
0.106543,43.9543,53.26
0.106641,43.8611,53.3
0.106689,43.7296,53.34
0.106738,43.6478,53.38
0.106836,43.4688,53.42
0.106885,43.5243,53.46
0.106982,43.3603,53.5
0.107031,43.2018,53.54
0.107129,43.2234,53.58
0.107227,42.9709,53.62
0.107275,42.9538,53.66
0.107373,42.8081,53.7
0.107422,42.7724,53.74
0.10752,42.7378,53.78
0.107568,42.5095,53.82
0.107666,42.4322,53.86
0.107764,42.3561,53.9
0.107812,42.2874,53.94
0.10791,42.1909,53.98
0.107959,41.9723,54.02
0.108057,41.9076,54.06
0.108154,41.9345,54.1
0.108252,41.7016,54.14
0.108301,41.7486,54.18
0.108398,41.5096,54.22
0.108447,41.561,54.26
0.108545,41.4267,54.3
0.108643,41.2206,54.34
0.108691,41.2279,54.38
0.108789,41.1721,54.42
0.108887,40.9935,54.46
0.108984,41.0692,54.5
0.109082,40.8262,54.54
0.10918,41.0135,54.58
0.109277,40.6874,54.62
0.109326,40.6514,54.66
0.109424,40.5093,54.7
0.109521,40.3553,54.74
0.109619,40.4467,54.78
0.109668,40.1852,54.82
0.109766,40.0668,54.86
0.109863,40.0664,54.9
0.109912,39.8272,54.94
0.11001,39.9429,54.98
0.110059,39.6877,55.02
0.110156,39.6582,55.06
0.110254,39.5777,55.1
0.110352,39.322,55.14
0.1104,39.4464,55.18
0.110498,39.3053,55.22
0.110596,39.2298,55.26
0.110645,39.1571,55.3
0.110742,38.8273,55.34
0.11084,38.8986,55.38
0.110889,38.8091,55.42
0.110986,38.6767,55.46
0.111035,38.5396,55.491