File: Data/Thesis_Samples_Data/Flexural_Solid_2/DAQ- Crosshead, … - (Timed).txt
File Path: C:\Users\Lab User\Desktop\Will\Thesis Tests\Test Run 5 04-8-22 14 58 01 PM\DAQ- Crosshead, … - (Timed).txt
Test: MTS EM Flexure (3-Point Bend) - Will 1
Test Run: Test Run 5
Date: 4/8/2022 2:54:07 PM

Crosshead 	Load 	Time
mm	N	sec
0	1.45294	0.02
4.88281e-05	1.52098	0.08
9.76562e-05	1.44042	0.14
0.000146484	1.47309	0.2
0.000195312	1.65236	0.26
0.000244141	1.46645	0.32
0.000341797	1.60207	0.38
0.000439453	1.67958	0.44
0.000585938	1.73313	0.5
0.000683594	1.98487	0.56
0.000830078	1.88724	0.62
0.000927734	2.11115	0.68
0.00112305	2.29137	0.74
0.00126953	2.42839	0.8
0.00146484	2.7574	0.86
0.00166016	3.01205	0.92
0.00185547	3.40722	0.98
0.00200195	3.54314	1.04
0.00214844	3.78969	1.1
0.00229492	4.0903	1.16
0.00239258	4.07522	1.22
0.00253906	4.38611	1.28
0.00263672	4.50159	1.34
0.0027832	4.79725	1.4
0.00288086	4.94622	1.46
0.00302734	5.00405	1.52
0.003125	5.30338	1.58
0.00322266	5.33791	1.64
0.00336914	5.57888	1.7
0.0034668	5.71218	1.76
0.00356445	5.83208	1.82
0.00371094	6.17917	1.88
0.00380859	6.13118	1.94
0.00390625	6.39531	2
0.00405273	6.40168	2.06
0.00415039	6.56811	2.12
0.00424805	6.89339	2.18
0.00439453	6.92109	2.24
0.00449219	7.11453	2.3
0.00458984	7.26924	2.36
0.00473633	7.3531	2.42
0.00483398	7.68482	2.48
0.00498047	7.65183	2.54
0.00507813	7.9337	2.6
0.00517578	7.96628	2.66
0.00532227	8.14963	2.72
0.00541992	8.47592	2.78
0.00556641	8.42863	2.84
0.00566406	8.76931	2.9
0.00581055	8.94142	2.96
0.00595703	9.02451	3.02
0.00605469	9.27327	3.08
0.00620117	9.34487	3.14
0.00629883	9.65086	3.2
0.00644531	9.70152	3.26
0.0065918	9.91945	3.32
0.00673828	10.1451	3.38
0.00683594	10.2262	3.44
0.00698242	10.5637	3.5
0.00712891	10.5818	3.56
0.00722656	10.9182	3.62
0.00737305	11.1591	3.68
0.00751953	11.2272	3.74
0.00761719	11.5512	3.8
0.00776367	11.517	3.86
0.00786133	11.8639	3.92
0.00800781	11.9588	3.98
0.00810547	12.1527	4.04
0.00825195	12.4153	4.1
0.00834961	12.5884	4.16
0.00849609	12.8261	4.22
0.00859375	12.9061	4.28
0.00874023	13.1782	4.34
0.00883789	13.4199	4.4
0.00893555	13.4085	4.46
0.00908203	13.8837	4.52
0.00922852	13.9692	4.58
0.00932617	14.1359	4.64
0.00942383	14.36	4.7
0.00957031	14.4379	4.76
0.00966797	14.7996	4.82
0.00981445	14.892	4.88
0.00991211	15.0475	4.94
0.0100098	15.4345	5
0.0101563	15.4426	5.06
0.0102539	15.87	5.12
0.0103516	15.9674	5.18
0.010498	16.1746	5.24
0.0105957	16.4195	5.3
0.0106934	16.4792	5.36
0.0108398	16.8837	5.42
0.0109375	16.9266	5.48
0.0110352	17.2581	5.54
0.0111816	17.4387	5.6
0.0112793	17.5716	5.66
0.011377	17.9522	5.72
0.0115234	18.0517	5.78
0.0116211	18.3934	5.84
0.0117676	18.6316	5.9
0.0118652	18.7895	5.96
0.0119629	19.1169	6.02
0.0121094	19.2367	6.08
0.0122559	19.6686	6.14
0.0123535	19.7899	6.2
0.0125	20.0889	6.26
0.0125977	20.3839	6.32
0.0127441	20.5574	6.38
0.0128906	20.9808	6.44
0.0129883	21.1808	6.5
0.0131348	21.365	6.56
0.0132813	21.7514	6.62
0.0133789	21.9224	6.68
0.0135254	22.245	6.74
0.013623	22.5091	6.8
0.0137695	22.8776	6.86
0.013916	23.108	6.92
0.0140137	23.241	6.98
0.0141602	23.7524	7.04
0.0142578	23.7203	7.1
0.0144043	24.0308	7.16
0.014502	24.3987	7.22
0.0146484	24.6165	7.28
0.0147461	25.0235	7.34
0.0148926	25.0643	7.4
0.0149902	25.4959	7.46
0.0151367	25.6784	7.52
0.0152344	25.8808	7.58
0.0153809	26.2713	7.64
0.0154785	26.4094	7.7
0.0155762	26.7976	7.76
0.0157227	27.0055	7.82
0.0158203	27.1734	7.88
0.015918	27.5075	7.94
0.0160645	27.562	8
0.0161621	28.073	8.06
0.0163086	28.2732	8.12
0.0164062	28.6164	8.18
0.0165527	28.9235	8.24
0.0166504	28.9919	8.3
0.016748	29.4617	8.36
0.0168457	29.6037	8.42
0.0169922	29.8094	8.48
0.0170898	30.1363	8.54
0.0171875	30.3219	8.6
0.0172852	30.7462	8.66
0.0174316	30.8046	8.72
0.0175293	31.0872	8.78
0.017627	31.378	8.84
0.0177246	31.5356	8.9
0.0178711	31.9965	8.96
0.0179688	32.1266	9.02
0.0180664	32.489	9.08
0.0182129	32.7148	9.14
0.0183105	32.9139	9.2
0.018457	33.3571	9.26
0.0185547	33.4662	9.32
0.0186523	33.929	9.38
0.0187988	34.2122	9.44
0.0188965	34.3827	9.5
0.019043	34.8554	9.56
0.0191406	34.9036	9.62
0.0192871	35.3481	9.68
0.0194336	35.5971	9.74
0.0195312	36.0624	9.8
0.0196777	36.3813	9.86
0.0197754	36.5945	9.92
0.0199219	37.0148	9.98
0.0200684	37.2535	10.04
0.020166	37.531	10.1
0.0203125	37.9747	10.16
0.0204102	38.1817	10.22
0.0205566	38.6456	10.28
0.0207031	38.8282	10.34
0.0208008	39.2598	10.4
0.0209473	39.5114	10.46
0.0210449	39.6604	10.52
0.0211914	40.1625	10.58
0.0212891	40.3423	10.64
0.0214355	40.7464	10.7
0.0215332	41.0728	10.76
0.0216797	41.21	10.82
0.0217773	41.7248	10.88
0.021875	41.9222	10.94
0.0220215	42.2421	11
0.0221191	42.5788	11.06
0.0222656	42.8511	11.12
0.0223633	43.3563	11.18
0.0225098	43.4418	11.24
0.0226074	43.835	11.3
0.0227051	44.1335	11.36
0.0228516	44.3852	11.42
0.0229492	44.7669	11.48
0.0230469	44.8196	11.54
0.0231934	45.3368	11.6
0.023291	45.5662	11.66
0.0233887	45.8936	11.72
0.0234863	46.3011	11.78
0.0236328	46.4373	11.84
0.0237305	46.917	11.9
0.023877	47.1692	11.96
0.0239746	47.4557	12.02
0.0240723	47.8029	12.08
0.0241699	48.0239	12.14
0.0243164	48.4356	12.2
0.0244141	48.6141	12.26
0.0245117	48.997	12.32
0.0246582	49.2907	12.38
0.0247559	49.5246	12.44
0.0248535	50.1014	12.5
0.025	50.2397	12.56
0.0250977	50.6924	12.62
0.0252441	51.1338	12.68
0.0253418	51.3653	12.74
0.0254883	51.7657	12.8
0.0255859	52.0701	12.86
0.0257324	52.5271	12.92
0.0258301	52.8253	12.98
0.0259766	53.1945	13.04
0.026123	53.6859	13.1
0.0262695	53.8823	13.16
0.0263672	54.3679	13.22
0.0265137	54.6858	13.28
0.0266602	55.1175	13.34
0.0267578	55.6253	13.4
0.0269043	55.8455	13.46
0.0270508	56.3301	13.52
0.0271484	56.6819	13.58
0.0272949	56.9809	13.64
0.0274414	57.4235	13.7
0.0275391	57.5965	13.76
0.0276855	58.2066	13.82
0.0277832	58.4843	13.88
0.0279297	58.9478	13.94
0.0280762	59.3522	14
0.0281738	59.5466	14.06
0.0283203	60.1301	14.12
0.028418	60.2965	14.18
0.0285645	60.7379	14.24
0.0286621	61.1419	14.3
0.0288086	61.4297	14.36
0.0289063	61.9422	14.42
0.0290039	62.1581	14.48
0.0291504	62.5155	14.54
0.029248	62.8652	14.6
0.0293945	63.2122	14.66
0.0294922	63.7472	14.72
0.0295898	63.9585	14.78
0.0297363	64.3874	14.84
0.029834	64.7198	14.9
0.0299316	65.0888	14.96
0.0300781	65.5194	15.02
0.0301758	65.8143	15.08
0.0302734	66.2405	15.14
0.0304199	66.585	15.2
0.0305176	66.984	15.26
0.0306152	67.3666	15.32
0.0307617	67.5611	15.38
0.0308594	68.1731	15.44
0.030957	68.469	15.5
0.0311035	68.8356	15.56
0.0312012	69.1869	15.62
0.0312988	69.482	15.68
0.0314453	69.9599	15.74
0.031543	70.2719	15.8
0.0316406	70.774	15.86
0.0317871	71.1087	15.92
0.0318848	71.4027	15.98
0.0320313	72.0469	16.04
0.0321289	72.2287	16.1
0.0322754	72.7956	16.16
0.032373	73.1556	16.22
0.0325195	73.4981	16.28
0.0326172	74.2044	16.34
0.0327637	74.3568	16.4
0.0329102	75.019	16.46
0.0330566	75.4288	16.52
0.0331543	75.7868	16.58
0.0333008	76.311	16.64
0.0333984	76.6031	16.7
0.0335449	77.1543	16.76
0.0336914	77.6179	16.82
0.0337891	78.036	16.88
0.0339355	78.5862	16.94
0.0340332	78.8854	17
0.0341797	79.3763	17.06
0.0342773	79.6925	17.12
0.0344238	80.192	17.18
0.0345215	80.6744	17.24
0.034668	81.0078	17.3
0.0347656	81.5901	17.36
0.0349121	81.9349	17.42
0.0350098	82.4037	17.48
0.0351562	82.7723	17.54
0.0352539	83.0752	17.6
0.0354004	83.7868	17.66
0.035498	84.0155	17.72
0.0356445	84.5196	17.78
0.0357422	84.8872	17.84
0.0358398	85.4793	17.9
0.0359863	85.8671	17.96
0.036084	86.135	18.02
0.0361816	86.6454	18.08
0.0363281	87.057	18.14
0.0364258	87.4231	18.2
0.0365234	88.005	18.26
0.0366699	88.2021	18.32
0.0367676	88.7955	18.38
0.0368652	89.1911	18.44
0.0370117	89.5644	18.5
0.0371094	90.0366	18.56
0.037207	90.3984	18.62
0.0373047	90.9285	18.68
0.0374512	91.2635	18.74
0.0375488	91.671	18.8
0.0376465	92.1893	18.86
0.037793	92.5431	18.92
0.0378906	93.0191	18.98
0.0379883	93.4266	19.04
0.0381348	93.8912	19.1
0.0382324	94.3568	19.16
0.0383301	94.8071	19.22
0.0384766	95.4064	19.28
0.0385742	95.7154	19.34
0.0387207	96.1868	19.4
0.0388184	96.7481	19.46
0.0389648	97.1793	19.52
0.0390625	97.8824	19.58
0.039209	98.1813	19.64
0.0393066	98.7926	19.7
0.0394531	99.3125	19.76
0.0395996	99.8561	19.82
0.0396973	100.569	19.88
0.0398438	100.922	19.94
0.0399902	101.606	20
0.0400879	102.115	20.06
0.0402344	102.538	20.12
0.0403809	103.258	20.18
0.0404785	103.634	20.24
0.040625	104.126	20.3
0.0407227	104.661	20.36
0.0408691	105.287	20.42
0.0409668	105.839	20.48
0.0411133	98.913	20.54
0.0412598	95.7544	20.6
0.0413574	94.5503	20.66
0.0415039	94.672	20.72
0.0416016	95.1817	20.78
0.041748	95.6632	20.84
0.0418457	96.4382	20.9
0.0419922	96.9931	20.96
0.0420898	97.6735	21.02
0.0422363	98.3705	21.08
0.042334	99.0082	21.14
0.0424805	99.7984	21.2
0.0425781	100.245	21.26
0.0426758	101.139	21.32
0.0428223	101.774	21.38
0.0429199	102.26	21.44
0.0430664	102.981	21.5
0.0431641	103.488	21.56
0.0432617	104.1	21.62
0.0434082	104.626	21.68
0.0435059	105.175	21.74
0.0436035	105.89	21.8
0.04375	106.283	21.86
0.0438477	106.837	21.92
0.0439453	107.445	21.98
0.044043	107.853	22.04
0.0441895	108.386	22.1
0.0442871	108.795	22.16
0.0443848	109.455	22.22
0.0444824	109.832	22.28
0.0446289	110.32	22.34
0.0447266	110.951	22.4
0.044873	111.386	22.46
0.0449707	112.091	22.52
0.0450684	112.475	22.58
0.0452148	112.972	22.64
0.0453125	113.7	22.7
0.045459	114.01	22.76
0.0455566	114.766	22.82
0.0457031	115.263	22.88
0.0458496	115.923	22.94
0.0459473	116.534	23
0.0460938	117.002	23.06
0.0461914	117.879	23.12
0.0463379	118.249	23.18
0.0464844	118.925	23.24
0.046582	119.552	23.3
0.0467285	120.276	23.36
0.046875	120.932	23.42
0.0469727	121.369	23.48
0.0471191	122.094	23.54
0.0472656	122.727	23.6
0.0474121	123.254	23.66
0.0475098	123.864	23.72
0.0476074	124.368	23.78
0.0477539	124.963	23.84
0.0478516	125.47	23.9
0.047998	126.11	23.96
0.0480957	126.82	24.02
0.0482422	127.255	24.08
0.0483398	127.986	24.14
0.0484863	128.412	24.2
0.048584	129.124	24.26
0.0486816	129.672	24.32
0.0488281	130.176	24.38
0.0489746	131.063	24.44
0.0490723	131.528	24.5
0.0491699	132.052	24.56
0.0493164	132.634	24.62
0.0494141	133.174	24.68
0.0495605	133.949	24.74
0.0496582	134.454	24.8
0.0497559	135.054	24.86
0.0499023	135.646	24.92
0.05	136.102	24.98
0.0500977	136.943	25.04
0.0501953	137.382	25.1
0.0503418	137.931	25.16
0.0504395	138.562	25.22
0.0505371	139.166	25.28
0.0506836	139.829	25.34
0.0507813	140.277	25.4
0.0508789	140.997	25.46
0.0509766	141.674	25.52
0.051123	142.289	25.58
0.0512207	143.116	25.64
0.0513184	143.498	25.7
0.0514648	144.264	25.76
0.0515625	144.902	25.82
0.0516602	145.627	25.88
0.0518066	146.307	25.94
0.0519043	146.973	26
0.0520508	147.795	26.06
0.0521484	148.479	26.12
0.0522949	149.25	26.18
0.0523926	150.073	26.24
0.0525391	150.917	26.3
0.0526367	151.826	26.36
0.0527832	152.531	26.42
0.0528809	153.464	26.48
0.0530273	154.351	26.54
0.0531738	155.232	26.6
0.0532715	156.3	26.66
0.053418	157.079	26.72
0.0535645	158.048	26.78
0.0536621	158.944	26.84
0.0538086	159.689	26.9
0.0539062	160.835	26.96
0.0540527	161.468	27.02
0.0541504	162.418	27.08
0.0542969	163.323	27.14
0.0543945	164.29	27.2
0.054541	165.061	27.26
0.0546387	165.872	27.32
0.0547852	166.753	27.38
0.0548828	167.906	27.44
0.0550293	168.62	27.5
0.055127	169.684	27.56
0.0552734	170.434	27.62
0.0553711	171.474	27.68
0.0555176	172.366	27.74
0.0556152	173.312	27.8
0.0557617	174.311	27.86
0.0558594	175.033	27.92
0.055957	176.074	27.98
0.0561035	176.783	28.04
0.0562012	177.641	28.1
0.0562988	178.733	28.16
0.0564453	179.258	28.22
0.056543	180.447	28.28
0.0566406	181.243	28.34
0.0567871	182.143	28.4
0.0568848	183.11	28.46
0.0569824	183.938	28.52
0.0571289	184.932	28.58
0.0572266	185.778	28.64
0.057373	186.688	28.7
0.0574707	187.528	28.76
0.0575684	188.484	28.82
0.057666	189.55	28.88
0.0578125	190.174	28.94
0.0579102	191.162	29
0.0580078	192.343	29.06
0.0581543	193.096	29.12
0.058252	194.375	29.18
0.0583984	195.103	29.24
0.0584961	196.089	29.3
0.0585937	197.086	29.36
0.0587402	197.973	29.42
0.0588379	199.13	29.48
0.0589844	199.95	29.54
0.059082	201.233	29.6
0.0592285	202.353	29.66
0.059375	203.327	29.72
0.0594727	204.499	29.78
0.0596191	205.491	29.84
0.0597656	206.889	29.9
0.0598633	207.92	29.96
0.0600098	209.101	30.02
0.0601562	210.304	30.08
0.0602539	211.325	30.14
0.0604004	212.512	30.2
0.0605469	213.451	30.26
0.0606445	214.568	30.32
0.060791	215.743	30.38
0.0609375	216.826	30.44
0.0610352	218.068	30.5
0.0611816	219.028	30.56
0.0612793	220.238	30.62
0.0614258	221.342	30.68
0.0615234	222.404	30.74
0.0616699	223.474	30.8
0.0617676	224.507	30.86
0.0619141	225.526	30.92
0.0620117	226.71	30.98
0.0621582	227.551	31.04
0.0622559	228.762	31.1
0.0624023	229.66	31.16
0.0625	230.905	31.22
0.0625977	231.741	31.28
0.0627441	232.607	31.34
0.0628418	233.88	31.4
0.0629395	234.772	31.46
0.0630859	235.87	31.52
0.0631836	236.666	31.58
0.0632813	237.719	31.64
0.0634277	238.669	31.7
0.0635254	239.621	31.76
0.0636719	240.727	31.82
0.0637695	241.502	31.88
0.0638672	242.74	31.94
0.0640137	243.742	32
0.0641113	244.413	32.06
0.064209	245.477	32.12
0.0643066	246.548	32.18
0.0644043	247.263	32.24
0.0645508	248.23	32.3
0.0646484	249.266	32.36
0.0647461	250.41	32.42
0.0648926	251.227	32.48
0.0649902	252.46	32.54
0.0651367	253.513	32.6
0.0652344	254.66	32.66
0.0653809	255.859	32.72
0.0654785	256.911	32.78
0.065625	258.082	32.84
0.0657227	259.198	32.9
0.0658691	260.29	32.96
0.0659668	261.374	33.02
0.0661133	262.522	33.08
0.0662109	263.872	33.14
0.0663574	265.046	33.2
0.0665039	266.36	33.26
0.0666504	267.767	33.32
0.066748	268.869	33.38
0.0668945	270.051	33.44
0.0669922	271.258	33.5
0.0671387	272.364	33.56
0.0672852	273.663	33.62
0.0673828	274.695	33.68
0.0675293	275.972	33.74
0.067627	276.953	33.8
0.0677734	277.934	33.86
0.0678711	279.078	33.92
0.0680176	280.082	33.98
0.0681152	281.397	34.04
0.0682617	282.379	34.1
0.0683594	283.493	34.16
0.0685059	284.63	34.22
0.0686035	285.762	34.28
0.06875	286.89	34.34
0.0688477	287.944	34.4
0.0689453	288.957	34.46
0.0690918	289.882	34.52
0.0691895	291.175	34.58
0.0693359	292.237	34.64
0.0694336	293.245	34.7
0.0695312	294.393	34.76
0.0696777	295.283	34.82
0.0697754	296.391	34.88
0.0699219	297.632	34.94
0.0700195	298.561	35
0.0701172	299.648	35.06
0.0702148	300.648	35.12
0.0703613	301.728	35.18
0.070459	302.953	35.24
0.0705566	303.83	35.3
0.0707031	304.979	35.36
0.0708008	305.994	35.42
0.0708984	307.063	35.48
0.0709961	308.241	35.54
0.0711426	309.064	35.6
0.0712402	310.431	35.66
0.0713867	311.341	35.72
0.0714844	312.508	35.78
0.071582	313.699	35.84
0.0717285	314.697	35.9
0.0718262	315.87	35.96
0.0719727	316.952	36.02
0.0720703	317.997	36.08
0.072168	319.199	36.14
0.0723145	320.239	36.2
0.0724121	321.758	36.26
0.0725586	322.741	36.32
0.0727051	322.806	36.38
0.0728516	322.954	36.44
0.0729492	323.493	36.5
0.0730957	324.37	36.56
0.0732422	324.929	36.62
0.0733398	325.961	36.68
0.0734863	326.885	36.74
0.0736328	327.825	36.8
0.0737305	328.85	36.86
0.073877	329.626	36.92
0.0740234	330.812	36.98
0.0741211	331.786	37.04
0.0742676	332.59	37.1
0.0743652	333.678	37.16
0.0745117	334.608	37.22
0.0746094	335.735	37.28
0.0747559	336.96	37.34
0.0748535	337.871	37.4
0.075	339.045	37.46
0.0750977	340.038	37.52
0.0752441	341.241	37.58
0.0753418	342.332	37.64
0.0754883	343.343	37.7
0.0755859	344.53	37.76
0.0757324	345.413	37.82
0.0758301	346.424	37.88
0.0759766	347.357	37.94
0.0760742	348.299	38
0.0761719	349.483	38.06
0.0763184	350.18	38.12
0.076416	351.45	38.18
0.0765137	352.283	38.24
0.0766602	353.249	38.3
0.0767578	354.322	38.36
0.0769043	355.295	38.42
0.077002	356.245	38.48
0.0770996	357.06	38.54
0.0771973	358.212	38.6
0.0773437	359.04	38.66
0.0774414	360.058	38.72
0.0775391	361.192	38.78
0.0776367	361.887	38.84
0.0777832	363.175	38.9
0.0778809	364.154	38.96
0.0779785	365.158	39.02
0.078125	366.276	39.08
0.0782227	367.228	39.14
0.0783691	368.317	39.2
0.0784668	369.259	39.26
0.0785645	370.526	39.32
0.0787109	371.547	39.38
0.0788086	372.826	39.44
0.0789551	373.944	39.5
0.0790527	375.047	39.56
0.0791992	376.42	39.62
0.0793457	377.727	39.68
0.0794434	378.899	39.74
0.0795898	380.241	39.8
0.0797363	381.379	39.86
0.079834	382.636	39.92
0.0799805	383.891	39.98
0.080127	385.062	40.04
0.0802246	386.391	40.1
0.0803711	387.344	40.16
0.0804688	388.75	40.22
0.0806152	389.818	40.28
0.0807129	391.072	40.34
0.0808594	392.329	40.4
0.080957	393.374	40.46
0.0811035	394.556	40.52
0.0812012	395.568	40.58
0.0813477	396.712	40.64
0.0814453	397.347	40.7
0.0815918	394.54	40.76
0.0817383	394.85	40.82
0.0818359	394.922	40.88
0.0819336	394.677	40.94
0.0820801	394.464	41
0.0821777	393.878	41.06
0.0822754	393.245	41.12
0.0824219	392.332	41.18
0.0825195	391.465	41.24
0.0826172	390.494	41.3
0.0827637	389.549	41.36
0.0828613	388.932	41.42
0.082959	387.901	41.48
0.0831055	387.247	41.54
0.0832031	386.978	41.6
0.0833496	386.618	41.66
0.0834473	386.884	41.72
0.0835449	386.809	41.78
0.0836426	386.872	41.84
0.0837891	386.617	41.9
0.0838867	385.919	41.96
0.0839844	384.946	42.02
0.0841309	383.244	42.08
0.0842285	381.307	42.14
0.0843262	379.21	42.2
0.0844238	376.864	42.26
0.0845703	375.01	42.32
0.084668	373.203	42.38
0.0847656	372.029	42.44
0.0849121	371.077	42.5
0.0850098	370.229	42.56
0.0851074	368.902	42.62
0.0852539	367.2	42.68
0.0853516	366.3	42.74
0.085498	364.96	42.8
0.0855957	363.572	42.86
0.0857422	362.161	42.92
0.0858398	360.321	42.98
0.0859863	358.393	43.04
0.086084	356.27	43.1
0.0862305	354.43	43.16
0.086377	353.074	43.22
0.0864746	351.942	43.28
0.0866211	350.738	43.34
0.0867676	349.577	43.4
0.0868652	348.473	43.46
0.0870117	347.11	43.52
0.0871582	345.589	43.58
0.0872559	344.194	43.64
0.0874023	342.829	43.7
0.0875	341.798	43.76
0.0876465	340.793	43.82
0.087793	339.18	43.88
0.0878906	337.387	43.94
0.0880371	335.402	44
0.0881348	333.761	44.06
0.0882813	332.459	44.12
0.0883789	331.191	44.18
0.0885254	330.073	44.24
0.088623	328.942	44.3
0.0887695	327.822	44.36
0.0888672	326.543	44.42
0.0890137	325.276	44.48
0.0891113	324.073	44.54
0.089209	322.575	44.6
0.0893066	321.272	44.66
0.0894531	319.441	44.72
0.0895508	317.766	44.78
0.0896973	315.842	44.84
0.0897949	313.771	44.9
0.0898926	311.954	44.96
0.0900391	310.032	45.02
0.0901367	307.885	45.08
0.0902344	305.404	45.14
0.0903809	303.021	45.2
0.0904785	300.903	45.26
0.0905762	298.318	45.32
0.0907227	295.11	45.38
0.0908203	292.096	45.44
0.090918	288.35	45.5
0.0910645	283.236	45.56
0.0911621	276.914	45.62
0.0912598	271.034	45.68
0.0914062	265.91	45.74
0.0915039	261.333	45.8
0.0916504	258.546	45.86
0.0917481	256.644	45.92
0.0918457	255.325	45.98
0.0919922	254.146	46.04
0.0920898	253.193	46.1
0.0922363	252.653	46.16
0.092334	251.496	46.22
0.0924805	250.621	46.28
0.092627	249.776	46.34
0.0927246	248.574	46.4
0.0928711	247.52	46.46
0.0930176	245.9	46.52
0.0931641	244.281	46.58
0.0932617	240.529	46.64
0.0934082	234.966	46.7
0.0935547	232.301	46.76
0.0936523	228.905	46.82
0.0937988	225.902	46.88
0.0938965	222.528	46.94
0.094043	219.809	47
0.0941895	217.213	47.06
0.0942871	214.514	47.12
0.0944336	212.78	47.18
0.0945312	210.728	47.24
0.0946777	208.357	47.3
0.0947754	206.033	47.36
0.0949219	203.379	47.42
0.0950195	201.867	47.48
0.095166	200.394	47.54
0.0952637	199.165	47.6
0.0953613	198.218	47.66
0.0955078	197.142	47.72
0.0956055	196.722	47.78
0.095752	195.965	47.84
0.0958496	195.663	47.9
0.0959961	195.32	47.96
0.0960937	194.89	48.02
0.0961914	194.714	48.08
0.0963379	194.31	48.14
0.0964355	194.282	48.2
0.096582	194.142	48.26
0.0966797	193.757	48.32
0.0967773	193.597	48.38
0.096875	193.103	48.44
0.0970215	192.741	48.5
0.0971191	192.651	48.56
0.0972168	192.48	48.62
0.0973633	192.46	48.68
0.0974609	192.119	48.74
0.0975586	192.07	48.8
0.0976563	191.754	48.86
0.0978027	191.513	48.92
0.0979004	191.456	48.98
0.0980469	191.161	49.04
0.0981445	191.152	49.1
0.0982422	191.153	49.16
0.0983887	191.008	49.22
0.0984863	191.032	49.28
0.098584	190.68	49.34
0.0987305	190.732	49.4
0.0988281	190.517	49.46
0.0989746	190.359	49.52
0.0991211	190.422	49.58
0.0992187	190.012	49.64
0.0993652	189.782	49.7
0.0994629	189.241	49.76
0.0996094	188.667	49.82
0.0997559	188.202	49.88
0.0998535	187.553	49.94
0.1	187.047	50
0.100146	186.184	50.06
0.100244	185.257	50.12
0.100391	184.473	50.18
0.100488	183.527	50.24
0.100635	182.761	50.3
0.100781	181.69	50.36
0.100879	180.899	50.42
0.101025	180.095	50.48
0.101123	179.03	50.54
0.10127	178.154	50.6
0.101367	176.973	50.66
0.101514	176.123	50.72
0.101611	175.261	50.78
0.101758	174.594	50.84
0.101855	174.166	50.9
0.101953	173.339	50.96
0.1021	172.712	51.02
0.102197	172.125	51.08
0.102344	171.414	51.14
0.102441	170.889	51.2
0.102588	170.097	51.26
0.102686	169.752	51.32
0.102783	169.192	51.38
0.10293	168.636	51.44
0.103027	168.263	51.5
0.103125	167.528	51.56
0.103271	166.973	51.62
0.103369	166.421	51.68
0.103467	165.875	51.74
0.103613	165.375	51.8
0.103711	164.715	51.86
0.103809	164.262	51.92
0.103955	163.648	51.98
0.104053	162.923	52.04
0.10415	162.505	52.1
0.104248	161.903	52.16
0.104395	161.28	52.22
0.104492	160.684	52.28
0.10459	160.204	52.34
0.104736	159.565	52.4
0.104834	159.028	52.46
0.104932	158.636	52.52
0.105078	157.958	52.58
0.105176	157.655	52.64
0.105322	157.189	52.7
0.10542	156.545	52.76
0.105566	156.192	52.82
0.105664	155.654	52.88
0.105811	155.245	52.94
0.105908	154.864	53
0.106055	154.389	53.06
0.106201	154.102	53.12
0.106348	153.445	53.18
0.106445	152.745	53.24
0.106592	151.048	53.3
0.106689	131.165	53.36
0.106836	127.438	53.42
0.106982	124.736	53.48
0.107129	123	53.54
0.107227	121.512	53.6
0.107373	120.239	53.66
0.107471	119.152	53.72
0.107617	117.861	53.78
0.107764	116.9	53.84
0.107861	116	53.9
0.108008	115.04	53.96
0.108105	114.382	54.02
0.108252	113.329	54.08
0.10835	111.64	54.14
0.108496	110.356	54.2
0.108594	109.524	54.26
0.10874	108.786	54.32
0.108838	107.901	54.38
0.108984	107.279	54.44
0.109082	106.51	54.5
0.10918	105.882	54.56
0.109326	105.251	54.62
0.109424	104.634	54.68
0.109521	103.916	54.74
0.109668	103.124	54.8
0.109766	102.506	54.86
0.109912	101.792	54.92
0.11001	101.195	54.98
0.110107	100.838	55.04
0.110254	100.109	55.1
0.110352	99.6973	55.16
0.110449	99.2737	55.22
0.110596	98.754	55.28
0.110693	98.3961	55.34
0.110791	97.805	55.4
0.110938	97.2867	55.46
0.111035	96.8474	55.52
0.111133	96.1656	55.58
0.111279	95.7413	55.64
0.111377	95.1222	55.7
0.111475	94.7104	55.76
0.111572	94.159	55.82
0.111719	93.7474	55.88
0.111816	93.408	55.94
0.111963	92.871	56
0.112061	92.6276	56.06
0.112207	92.2508	56.12
0.112305	91.9697	56.18
0.112451	91.6546	56.24
0.112549	91.3097	56.3
0.112695	91.1379	56.36
0.112793	90.8202	56.42
0.112939	90.5269	56.48
0.113086	90.3124	56.54
0.113184	89.8524	56.6
0.11333	89.7979	56.66
0.113477	89.3318	56.72
0.113574	89.038	56.78
0.113721	88.7072	56.84
0.113867	88.1122	56.9
0.113965	87.9881	56.96
0.114111	87.514	57.02
0.114209	87.3436	57.08
0.114355	87.0227	57.14
0.114453	86.7145	57.2
0.1146	86.5622	57.26
0.114697	86.2073	57.32
0.114844	85.8796	57.38
0.114941	85.5714	57.44
0.115088	85.3109	57.5
0.115186	85.1424	57.56
0.115283	84.7091	57.62
0.11543	84.4379	57.68
0.115576	84.1219	57.74
0.115674	83.7251	57.8
0.115771	83.715	57.86
0.115918	83.1839	57.92
0.116016	83.1042	57.98
0.116113	82.7579	58.04
0.11626	82.4141	58.1
0.116357	82.2037	58.16
0.116504	81.8524	58.22
0.116602	81.6213	58.28
0.116699	81.3078	58.34
0.116797	81.0832	58.4
0.116943	80.8586	58.46
0.117041	80.3916	58.52
0.117139	80.4609	58.58
0.117236	80.0156	58.64
0.117383	79.6852	58.7
0.11748	79.5772	58.76
0.117578	79.082	58.82
0.117725	78.94	58.88
0.117822	78.5306	58.94
0.11792	78.2297	59
0.118018	75.5924	59.06
0.118164	71.9275	59.12
0.118262	70.4747	59.18
0.118359	69.1377	59.24
0.118506	68.0966	59.3
0.118604	67.2898	59.36
0.11875	66.4874	59.42
0.118848	66.0309	59.48
0.118994	63.9168	59.54
0.119092	62.5375	59.6
0.119238	61.4731	59.66
0.119385	60.5354	59.72
0.119482	60.0174	59.78
0.119629	59.2572	59.84
0.119727	58.7479	59.9
0.119873	58.3859	59.96
0.12002	57.9632	60.02
0.120117	57.7641	60.08
0.120264	57.3562	60.14
0.12041	57.217	60.2
0.120508	57.1205	60.26
0.120654	56.4652	60.32
0.120752	56.2768	60.38
0.120898	55.7243	60.44
0.120996	55.5594	60.5
0.121143	55.2502	60.56
0.12124	54.9481	60.62
0.121387	54.6693	60.68
0.121484	54.2505	60.74
0.121631	54.08	60.8
0.121729	53.7609	60.86
0.121875	53.4676	60.92
0.121973	53.3001	60.98
0.12207	52.9759	61.04
0.122217	52.942	61.1
0.122314	52.609	61.16
0.122461	52.4678	61.22
0.122559	52.3347	61.28
0.122705	51.9308	61.34
0.122803	51.9835	61.4
0.1229	51.6595	61.46
0.123047	51.502	61.52
0.123145	51.4237	61.58
0.123242	51.1437	61.64
0.12334	51.1075	61.7
0.123486	50.8953	61.76
0.123584	50.8267	61.82
0.123682	50.6145	61.88
0.123828	50.3513	61.94
0.123926	50.519	62
0.124023	50.1488	62.06
0.12417	50.1984	62.12
0.124268	49.9862	62.18
0.124365	49.8466	62.24
0.124463	49.8006	62.3
0.124609	49.4597	62.36
0.124707	49.6186	62.42
0.124854	49.4652	62.48
0.124951	49.15	62.54
0.125049	49.2351	62.6
0.125195	48.9035	62.66
0.125293	48.8995	62.72
0.125439	48.6244	62.78
0.125537	48.551	62.84
0.125684	48.4685	62.9
0.125781	48.2666	62.96
0.125928	48.1932	63.02
0.126074	48.0179	63.08
0.126172	47.8706	63.14
0.126318	47.7496	63.2
0.126465	47.4574	63.26
0.126611	47.4018	63.32
0.126758	47.0706	63.38
0.126855	46.9076	63.44
0.127002	46.6622	63.5
0.1271	46.3224	63.56
0.127246	46.207	63.62
0.127344	45.9105	63.68
0.12749	45.7599	63.74
0.127637	45.5683	63.8
0.127734	45.2534	63.86
0.127881	45.2348	63.92
0.127979	44.8762	63.98
0.128125	44.7721	64.04
0.128271	44.5562	64.1
0.128369	44.3408	64.16
0.128516	44.3733	64.22
0.128613	44.008	64.28
0.128711	43.914	64.34
0.128857	43.8304	64.4
0.128955	43.5817	64.46
0.129102	43.5306	64.52
0.129199	43.3027	64.58
0.129297	43.2532	64.64
0.129443	43.1415	64.7
0.129541	42.9825	64.76
0.129687	42.9109	64.82
0.129785	42.7059	64.88
0.129883	42.6493	64.94
0.130029	42.5146	65
0.130127	42.3077	65.06
0.130225	42.3621	65.12
0.130371	42.0071	65.18
0.130469	41.9856	65.24
0.130566	42.0041	65.3
0.130713	41.7364	65.36
0.130811	41.7715	65.42
0.130908	41.4651	65.48
0.131055	41.5641	65.54
0.131152	41.4902	65.6
0.13125	41.3208	65.66
0.131396	41.2772	65.72
0.131494	41.079	65.78
0.131592	41.1721	65.84
0.131738	40.9005	65.9
0.131836	40.9136	65.96
0.131982	40.8668	66.02
0.13208	40.7263	66.08
0.132227	40.6399	66.14
0.132324	40.5674	66.2
0.132471	40.4652	66.26
0.132617	40.3806	66.32
0.132715	39.037	66.371