File: Data/Thesis_Samples_Data/Flexural_Layered_2/Flexural_Layered_2.csv
"File Path: C:\Users\Lab User\Desktop\Will\Thesis Tests\Test Run 2 04-8-22 14 19 41 PM\DAQ- Crosshead, … - (Timed).txt   ",,
Test: MTS EM Flexure (3-Point Bend) - Will 1,,
Test Run: Test Run 2,,
Date: 4/8/2022 2:05:09 PM,,
,,
,,
Crosshead ,Load ,Time
mm,N,sec
0,1.74845,0.02
0.000732422,1.92186,0.56
0.002148437,2.22959,1.1
0.003271484,2.78531,1.64
0.004296875,3.00814,2.18
0.005322266,3.17318,2.72
0.006445312,3.72378,3.26
0.007617187,4.03066,3.8
0.008740234,4.29069,4.34
0.009814453,4.73019,4.88
0.010791,4.81548,5.42
0.0118652,5.12223,5.96
0.0129883,5.63383,6.5
0.0141113,5.79475,7.04
0.0152344,6.06211,7.58
0.0162598,6.50147,8.12
0.0172852,6.81385,8.66
0.0183105,7.06294,9.2
0.0193848,7.6026,9.74
0.0205566,7.98471,10.28
0.0216797,8.56656,10.82
0.0227539,8.50476,11.36
0.0238281,8.83067,11.9
0.0248535,9.40196,12.44
0.0259277,9.93208,12.98
0.02709961,10.3674,13.52
0.0282227,10.9655,14.06
0.029248,11.3963,14.6
0.0303223,11.8451,15.14
0.0312988,12.4642,15.68
0.032373,12.8223,16.22
0.0334961,13.2813,16.76
0.0346191,13.8623,17.3
0.03569336,14.3365,17.84
0.0367187,14.8428,18.38
0.0377441,15.3023,18.92
0.0387695,15.7963,19.46
0.0399414,16.2114,20
0.0411133,16.8462,20.54
0.0422363,17.2932,21.08
0.0433105,17.2823,21.62
0.04428711,17.9957,22.16
0.0453125,18.2859,22.7
0.0464844,18.8303,23.24
0.04760742,19.5105,23.78
0.0486816,19.8211,24.32
0.0497559,20.378,24.86
0.0507813,20.9649,25.4
0.0518066,21.3361,25.94
0.0529297,21.9021,26.48
0.0540527,22.5322,27.02
0.05517578,22.9052,27.56
0.05625,23.4733,28.1
0.0572754,24.0103,28.64
0.0583008,24.39,29.18
0.0594238,24.9092,29.72
0.0605469,25.6051,30.26
0.0616699,25.967,30.8
0.06274414,26.5731,31.34
0.0637695,27.2629,31.88
0.06479492,27.553,32.42
0.0658691,28.1946,32.96
0.0669922,28.8031,33.5
0.0681152,29.1993,34.04
0.0691895,29.9525,34.58
0.0702148,30.3376,35.12
0.0712402,30.7955,35.66
0.0723145,31.4311,36.2
0.0734863,32.054,36.74
0.0746094,32.4392,37.28
0.0756836,33.2933,37.82
0.0767578,33.7244,38.36
0.0777344,34.1802,38.9
0.0788086,34.8594,39.44
0.07993164,35.4371,39.98
0.0811035,35.968,40.52
0.0821777,36.7707,41.06
0.0832031,37.1833,41.6
0.0842285,37.6771,42.14
0.0852539,38.3316,42.68
0.0864258,38.8132,43.22
0.0875488,39.4516,43.76
0.0886719,40.1652,44.3
0.0897461,40.6272,44.84
0.0907715,41.0985,45.38
0.0917969,41.7988,45.92
0.0929199,42.327,46.46
0.094043,43.0674,47
0.095166,43.7149,47.54
0.0961914,44.0607,48.08
0.0972168,44.5949,48.62
0.0982422,45.435,49.16
0.0993164,45.8263,49.7
0.100488,46.632,50.24
0.101563,47.3301,50.78
0.102686,47.8727,51.32
0.103711,48.4995,51.86
0.104687,49.1393,52.4
0.105811,49.6473,52.94
0.106982,50.3749,53.48
0.108105,51.1012,54.02
0.10918,51.7073,54.56
0.110205,52.347,55.1
0.11123,52.9102,55.64
0.112256,53.4916,56.18
0.113428,54.2971,56.72
0.1146,55.0144,57.26
0.115674,55.5032,57.8
0.116699,56.2859,58.34
0.117725,56.9057,58.88
0.11875,57.3367,59.42
0.119922,58.2326,59.96
0.121045,58.9349,60.5
0.122168,59.522,61.04
0.123242,60.2548,61.58
0.124268,60.7678,62.12
0.125293,61.4511,62.66
0.126416,62.215,63.2
0.127539,62.8517,63.74
0.128613,63.4688,64.28
0.129687,64.2189,64.82
0.130713,64.7513,65.36
0.131689,65.2749,65.9
0.132813,66.0148,66.44
0.133936,66.6622,66.98
0.135059,67.3334,67.52
0.136133,67.9872,68.06
0.137158,68.5023,68.6
0.138135,69.1637,69.14
0.139258,69.9722,69.68
0.14043,70.5358,70.22
0.141553,71.297,70.76
0.142676,72.0331,71.3
0.143652,72.5008,71.84
0.144727,73.1592,72.38
0.145801,73.6715,72.92
0.146973,74.4161,73.46
0.1480957,75.1527,74
0.14917,75.8072,74.54
0.150195,76.2635,75.08
0.151172,77.0274,75.62
0.152246,77.5487,76.16
0.153418,78.1764,76.7
0.15459,79.0221,77.24
0.155664,79.542,77.78
0.156641,80.0044,78.32
0.157666,80.7721,78.86
0.15874,81.2416,79.4
0.159863,81.9714,79.94
0.161035,82.7186,80.48
0.162109,83.1788,81.02
0.163184,81.3758,81.56
0.16416,81.9152,82.1
0.165186,82.3249,82.64
0.1663086,83.0797,83.18
0.16748,83.5041,83.72
0.168506,83.8305,84.26
0.169629,84.2679,84.8
0.170605,83.6339,85.34
0.171631,83.428,85.88
0.172754,83.8367,86.42
0.173926,83.927,86.96
0.175049,82.9797,87.5
0.176074,36.5579,88.04
0.177148,36.9104,88.58
0.178174,37.1618,89.12
0.179248,37.7945,89.66
0.18042,38.2286,90.2
0.181543,38.6394,90.74
0.182617,39.1461,91.28
0.183643,39.4967,91.82
0.184668,39.7097,92.36
0.185742,40.2286,92.9
0.186914,40.5094,93.44
0.188037,40.9716,93.98
0.18916,41.5374,94.52
0.190186,41.6467,95.06
0.191162,41.999,95.6
0.192236,41.7844,96.14
0.193408,41.0705,96.68
0.194482,35.9848,97.22
0.195605,34.116,97.76
0.196631,33.9124,98.3
0.197656,33.9242,98.84
0.198633,34.0332,99.38
0.199805,33.9877,99.92
0.200928,34.2077,100.46
0.202051,33.753,101
0.203076,32.4817,101.54
0.204102,32.4263,102.08
0.205127,32.4802,102.62
0.20625,32.5304,103.16
0.207422,32.7459,103.7
0.208496,32.6174,104.24
0.209619,32.3956,104.78
0.210645,32.6202,105.32
0.211621,32.7219,105.86
0.212744,32.8108,106.4
0.213916,33.1083,106.94
0.215039,33.2988,107.48
0.216064,33.538,108.02
0.21709,33.8933,108.56
0.218066,33.9963,109.1
0.219189,34.1447,109.64
0.220361,34.4749,110.18
0.221484,34.6241,110.72
0.222607,34.8365,111.26
0.223633,35.1261,111.8
0.224658,35.1895,112.34
0.225732,35.4626,112.88
0.226904,35.7923,113.42
0.228027,35.8965,113.96
0.229102,36.1518,114.5
0.230127,36.4482,115.04
0.231104,36.4649,115.58
0.232129,36.7581,116.12
0.233252,36.9538,116.66
0.234424,37.1718,117.2
0.235498,37.4844,117.74
0.236523,37.6078,118.28
0.237549,37.7441,118.82
0.238574,38.1323,119.36
0.239746,38.3174,119.9
0.240918,38.543,120.44
0.242041,38.7935,120.98
0.243115,38.9583,121.52
0.244092,39.0722,122.06
0.245117,39.4063,122.6
0.24624,39.4723,123.14
0.247412,39.6779,123.68
0.248486,39.8503,124.22
0.249561,40.0072,124.76
0.250537,40.203,125.3
0.251611,40.4661,125.84
0.252686,40.4676,126.38
0.253857,40.8616,126.92
0.25498,41.1367,127.46
0.256055,41.139,128
0.25708,41.4487,128.54
0.258057,41.5568,129.08
0.25918,41.7296,129.62
0.260352,42.0659,130.16
0.261426,42.0921,130.7
0.262549,42.2861,131.24
0.263574,42.6724,131.78
0.264551,42.597,132.32
0.265625,42.7729,132.86
0.266797,43.2011,133.4
0.267871,43.1566,133.94
0.268994,43.4015,134.48
0.27002,43.7389,135.02
0.271045,43.7917,135.56
0.272119,44.0669,136.1
0.273242,44.272,136.64
0.274414,44.3247,137.18
0.275537,44.5825,137.72
0.276562,44.7442,138.26
0.277539,44.7907,138.8
0.278564,45.1247,139.34
0.279736,45.3402,139.88
0.280859,45.5252,140.42
0.281982,45.7927,140.96
0.283008,45.9357,141.5
0.284033,45.902,142.04
0.285059,46.3031,142.58
0.286182,46.4981,143.12
0.287402,46.7299,143.66
0.288477,46.9854,144.2
0.289551,47.0969,144.74
0.290576,47.2363,145.28
0.291602,47.5578,145.82
0.292676,47.609,146.36
0.293848,47.8536,146.9
0.294922,48.1207,147.44
0.295996,48.2729,147.98
0.297021,48.3228,148.52
0.297998,48.6368,149.06
0.299072,48.7217,149.6
0.300244,48.8525,150.14
0.301367,49.2454,150.68
0.30249,49.3778,151.22
0.303516,49.5215,151.76
0.304541,49.8861,152.3
0.305566,49.8968,152.84
0.306787,50.1172,153.38
0.30791,50.4674,153.92
0.308984,50.5804,154.46
0.310059,50.7158,155
0.311035,50.9842,155.54
0.312061,50.9847,156.08
0.313232,51.1864,156.62
0.314355,51.5128,157.16
0.315479,51.5886,157.7
0.316504,51.7572,158.24
0.317529,52.0025,158.78
0.318555,51.9342,159.32
0.319678,50.6878,159.86
0.32085,51.0584,160.4
0.321973,51.2509,160.94
0.322998,51.3326,161.48
0.324023,51.5781,162.02
0.325098,51.5935,162.56
0.326172,51.7762,163.1
0.327344,51.9909,163.64
0.328418,51.9105,164.18
0.329492,52.0208,164.72
0.330518,52.3357,165.26
0.331543,52.2764,165.8
0.332568,46.9549,166.34
0.33374,46.5019,166.88
0.334863,46.5135,167.42
0.335938,46.6805,167.96
0.336963,46.906,168.5
0.337988,46.8651,169.04
0.339014,47.0359,169.58
0.340234,46.8456,170.12
0.341357,46.7478,170.66
0.342432,46.7186,171.2
0.343506,46.7708,171.74
0.344531,46.548,172.28
0.345557,46.5752,172.82
0.346777,46.3674,173.36
0.3479,28.847,173.9
0.348926,28.8277,174.44
0.35,28.1755,174.98
0.351025,28.0318,175.52
0.352051,28.2228,176.06
0.353174,28.4947,176.6
0.354346,28.4816,177.14
0.35542,28.5768,177.68
0.356494,28.8218,178.22
0.35752,28.7568,178.76
0.358496,28.8417,179.3
0.359668,29.0406,179.84
0.360791,29.0537,180.38
0.361914,29.2712,180.92
0.362988,29.3774,181.46
0.364014,29.2916,182
0.365039,29.5117,182.54
0.366064,29.7264,183.08
0.367285,29.6651,183.62
0.368311,29.8585,184.16
0.369434,30.0148,184.7
0.370459,30.0007,185.24
0.371484,30.2874,185.78
0.372559,30.3105,186.32
0.373682,30.4648,186.86
0.374805,30.5721,187.4
0.375879,30.6863,187.94
0.376953,30.713,188.48
0.377979,30.8327,189.02
0.379053,30.9294,189.56
0.380225,31.0968,190.1
0.381348,31.2491,190.64
0.382422,31.1887,191.18
0.383447,31.1598,191.72
0.384473,31.3066,192.26
0.385547,31.2975,192.8
0.386719,31.238,193.34
0.387793,31.5002,193.88
0.388916,31.4277,194.42
0.38999,31.5403,194.96
0.390967,31.7491,195.5
0.392041,31.6394,196.04
0.393164,31.8903,196.58
0.394287,31.9686,197.12
0.39541,31.8845,197.66
0.396436,32.0197,198.2
0.397461,32.0953,198.74
0.398486,32.0224,199.28
0.399561,32.2377,199.82
0.400732,32.035,200.36
0.401855,31.9713,200.9
0.402881,32.0843,201.44
0.403906,32.0598,201.98
0.404932,32.0749,202.52
0.406055,32.2563,203.06
0.407227,32.2784,203.6
0.40835,32.1988,204.14
0.409424,32.3606,204.68
0.410449,32.2793,205.22
0.411475,32.345,205.76
0.412549,32.5854,206.3
0.413672,32.5002,206.84
0.414795,31.3677,207.38
0.415869,31.6462,207.92
0.416895,31.5387,208.46
0.41792,31.6799,209
0.418945,31.767,209.54
0.420117,31.7683,210.08
0.421289,31.9608,210.62
0.422412,32.1501,211.16
0.423438,31.9804,211.7
0.424463,32.1819,212.24
0.425488,32.258,212.78
0.426709,32.0637,213.32
0.427783,32.294,213.86
0.428906,32.3589,214.4
0.429932,32.3495,214.94
0.4309082,32.616,215.48
0.431934,32.6191,216.02
0.433057,32.636,216.56
0.43418,32.8393,217.1
0.435303,32.8204,217.64
0.436377,32.9104,218.18
0.437402,33.0796,218.72
0.438379,33.0005,219.26
0.439502,33.1148,219.8
0.440723,33.348,220.34
0.441797,33.2193,220.88
0.442871,33.2748,221.42
0.443945,33.431,221.96
0.444971,33.2979,222.5
0.446045,33.3932,223.04
0.447217,33.6047,223.58
0.448291,33.5504,224.12
0.449365,33.7044,224.66
0.450391,33.6885,225.2
0.451416,33.5151,225.74
0.45249,33.6348,226.28
0.453613,33.7627,226.82
0.454785,33.5817,227.36
0.455859,33.8423,227.9
0.456885,33.9859,228.44
0.45791,33.8474,228.98
0.458984,33.9899,229.52
0.460156,34.1943,230.06
0.461279,34.0885,230.6
0.462354,33.877,231.14
0.463379,29.1514,231.68
0.464404,28.9548,232.22
0.46543,29.1722,232.76
0.466553,29.2167,233.3
0.467676,29.185,233.84
0.468799,29.3278,234.38
0.469873,29.3769,234.92
0.47085,29.4388,235.46
0.471924,29.6547,236
0.473047,29.6679,236.54
0.47417,29.7379,237.08
0.475342,29.9396,237.62
0.476367,29.9673,238.16
0.477393,30.0494,238.7
0.478418,30.2589,239.24
0.479492,30.147,239.78
0.480664,30.2778,240.32
0.481787,30.4997,240.86
0.482861,30.4173,241.4
0.483887,30.505,241.94
0.484863,30.7146,242.48
0.485986,30.5526,243.02
0.487158,30.756,243.56
0.488281,30.8232,244.1
0.489355,30.8323,244.64
0.490381,30.9445,245.18
0.491406,31.0723,245.72
0.49248,31.0604,246.26
0.493604,31.2365,246.8
0.494727,31.3177,247.34
0.49585,31.2242,247.88
0.496826,31.4147,248.42
0.497852,31.5375,248.96
0.498877,31.5478,249.5
0.500049,31.6872,250.04
0.501172,31.7753,250.58
0.502246,31.685,251.12
0.50332,31.9092,251.66
0.504346,31.9656,252.2
0.505371,31.8629,252.74
0.506543,32.2766,253.28
0.507715,32.1551,253.82
0.508789,32.1451,254.36
0.509814,32.266,254.9
0.51084,32.258,255.44
0.511914,32.3964,255.98
0.513037,32.5234,256.52
0.51416,32.4641,257.06
0.515283,32.6095,257.6
0.516357,32.7203,258.14
0.517334,31.8863,258.68
0.518359,32.1441,259.22
0.519482,32.2701,259.76
0.520654,32.3153,260.3
0.521777,32.2716,260.84
0.522852,32.4261,261.38
0.523828,32.3239,261.92
0.524902,32.6687,262.46
0.525977,32.5667,263
0.527148,32.6695,263.54
0.528271,32.8372,264.08
0.529297,32.7582,264.62
0.530322,32.8022,265.16
0.531348,33.0069,265.7
0.532422,32.9442,266.24
0.533545,33.0576,266.78
0.534668,33.1912,267.32
0.535742,33.066,267.86
0.536768,33.2963,268.4
0.537793,33.2114,268.94
0.538818,33.2592,269.48
0.53999,33.4009,270.02
0.541162,33.4369,270.56
0.542285,33.4718,271.1
0.543311,33.6738,271.64
0.544336,33.6363,272.18
0.545361,33.6134,272.72
0.546533,33.77,273.26
0.547656,33.7888,273.8
0.548779,33.8947,274.34
0.549805,33.945,274.88
0.55083,33.7776,275.42
0.551855,34.0263,275.96
0.552979,34.1213,276.5
0.55415,34.0105,277.04
0.5552246,34.2283,277.58
0.556299,34.1284,278.12
0.557324,34.1215,278.66
0.55835,34.3479,279.2
0.559424,34.2402,279.74
0.560596,34.3996,280.28
0.561719,34.4134,280.82
0.562793,34.3199,281.36
0.563818,34.4775,281.9
0.564844,34.4761,282.44
0.565869,34.4945,282.98
0.567041,34.6026,283.52
0.568115,34.5785,284.06
0.569189,34.6027,284.6
0.570264,34.6425,285.14
0.57124,34.6391,285.68
0.572314,34.7793,286.22
0.573486,34.8795,286.76
0.574609,34.7779,287.3
0.575732,34.9681,287.84
0.576758,35.0556,288.38
0.577783,34.381,288.92
0.578809,33.4767,289.46
0.57998,31.2342,290
0.581152,21.3304,290.54
0.582227,21.601,291.08
0.583252,21.5088,291.62
0.584277,21.6224,292.16
0.585303,21.6988,292.7
0.586475,21.5363,293.24
0.587598,21.655,293.78
0.588721,21.7395,294.32
0.589746,21.5206,294.86
0.590771,21.6131,295.4
0.591846,21.6014,295.94
0.592969,21.5826,296.48
0.594092,21.7923,297.02
0.595215,21.7231,297.56
0.59624,21.7561,298.1
0.597266,22.0207,298.64
0.598291,21.854,299.18
0.599365,21.9865,299.72
0.600537,22.0943,300.26
0.60166,21.9171,300.8
0.602686,22.0565,301.34
0.603711,22.1351,301.88
0.604736,21.8979,302.42
0.605811,22.2836,302.96
0.606982,22.1514,303.5
0.608105,22.0989,304.04
0.609229,22.2928,304.58
0.610254,22.1733,305.12
0.611279,22.138,305.66
0.612353,22.3912,306.2
0.613477,22.2484,306.74
0.6146,22.3124,307.28
0.615674,22.4123,307.82
0.616699,22.3289,308.36
0.617725,22.4008,308.9
0.61875,22.4745,309.44
0.619922,22.4314,309.98
0.621094,22.4681,310.52
0.622217,22.5015,311.06
0.623242,22.4765,311.6
0.624268,22.5053,312.14
0.625293,22.5198,312.68
0.626465,22.5244,313.22
0.627588,22.7471,313.76
0.628711,22.5898,314.3
0.629736,22.6366,314.84
0.630762,22.7566,315.38
0.631738,22.6498,315.92
0.632813,22.63,316.46
0.634033,22.6889,317
0.635059,22.6207,317.54
0.636182,22.7217,318.08
0.637207,22.6767,318.62
0.638184,22.5098,319.16
0.639307,22.6258,319.7
0.640479,22.6741,320.24
0.641602,22.6448,320.78
0.642725,22.8286,321.32
0.64375,22.7303,321.86
0.644775,22.6843,322.4
0.64585,22.869,322.94
0.646973,22.8133,323.48
0.648096,22.8151,324.02
0.64917,22.9193,324.56
0.650195,22.7701,325.1
0.651221,22.8652,325.64
0.652246,22.7995,326.18
0.653418,22.7043,326.72
0.65459,22.8306,327.26
0.655664,22.8122,327.8
0.656738,22.7201,328.34
0.657715,22.8048,328.88
0.658789,22.8455,329.42
0.659912,22.8356,329.96
0.661084,22.8961,330.5
0.662109,22.7193,331.04
0.663184,22.7233,331.58
0.664209,22.7985,332.12
0.665234,22.7495,332.66
0.666357,22.7802,333.2
0.667529,22.8844,333.74
0.668604,22.7507,334.28
0.669629,22.8421,334.82
0.670654,22.9159,335.36
0.671729,22.6915,335.9
0.672803,22.8708,336.44
0.673975,22.8862,336.98
0.675098,22.8053,337.52
0.676172,22.9654,338.06
0.677197,22.909,338.6
0.678223,22.8644,339.14
0.679297,23.07,339.68
0.680469,22.9637,340.22
0.681592,22.9194,340.76
0.682666,23.1771,341.3
0.683691,22.9676,341.84
0.684717,22.9794,342.38
0.685791,23.2245,342.92
0.686963,23.0411,343.46
0.688086,23.0905,344
0.68916,23.1568,344.54
0.690234,23.0428,345.08
0.691211,23.1467,345.62
0.692285,23.1985,346.16
0.693408,23.0144,346.7
0.694531,23.1639,347.24
0.695605,23.2246,347.78
0.696631,23.1262,348.32
0.697656,23.2588,348.86
0.698682,23.205,349.4
0.699805,23.1265,349.94
0.700928,23.3786,350.48
0.702051,23.227,351.02
0.703125,23.1798,351.56
0.70415,23.3644,352.1
0.7051758,23.2436,352.64
0.706299,23.2888,353.18
0.707471,23.4024,353.72
0.708594,23.2338,354.26
0.709668,23.2857,354.8
0.710693,23.3032,355.34
0.711719,23.2029,355.88
0.712793,23.25,356.42
0.713965,23.3626,356.96
0.715088,23.266,357.5
0.716162,23.327,358.04
0.717139,23.3577,358.58
0.718164,23.2724,359.12
0.719238,23.4562,359.66
0.72041,23.4353,360.2
0.721533,23.3739,360.74
0.722656,23.5273,361.28
0.723682,23.4184,361.82
0.724707,23.3492,362.36
0.725732,23.4877,362.9
0.726904,23.5242,363.44
0.728027,23.3826,363.98
0.729102,23.5914,364.52
0.730127,23.4677,365.06
0.731152,23.4277,365.6
0.732178,23.6458,366.14
0.73335,23.6236,366.68
0.734473,23.5138,367.22
0.735498,23.6473,367.76
0.736572,23.5244,368.3
0.737598,23.5525,368.84
0.738623,23.6511,369.38
0.739746,23.5882,369.92
0.740918,23.6707,370.46
0.742041,23.7485,371
0.743115,23.5985,371.54
0.744141,23.6814,372.08
0.745166,23.7215,372.62
0.746289,23.66,373.16
0.747461,23.747,373.7
0.748535,23.6408,374.24
0.749609,23.5696,374.78
0.750635,23.7551,375.32
0.75166,23.6578,375.86
0.752734,23.7309,376.4
0.753906,23.7822,376.94
0.755029,23.7708,377.48
0.756103,23.7278,378.02
0.757129,23.7964,378.56
0.758105,23.7365,379.1
0.759229,23.8358,379.64
0.7604,23.89431,380.18
0.761475,23.735,380.72
0.762598,23.8208,381.26
0.763623,23.7512,381.8
0.764648,23.676,382.34
0.765674,23.729,382.88
0.766797,23.8408,383.42
0.767969,23.7258,383.96
0.768994,23.7555,384.5
0.770068,23.8723,385.04
0.771045,23.6966,385.58
0.772119,23.7834,386.12
0.773242,23.7708,386.66
0.774414,23.6844,387.2
0.775537,23.8337,387.74
0.776562,23.7855,388.28
0.777588,23.7633,388.82
0.778613,23.8662,389.36
0.779785,23.6798,389.9
0.780908,23.7867,390.44
0.782031,23.8815,390.98
0.783105,23.7126,391.52
0.784082,23.7464,392.06
0.785107,23.7674,392.6
0.786279,23.7001,393.14
0.787402,23.7869,393.68
0.788525,23.7604,394.22
0.789551,23.7324,394.76
0.790625,23.7573,395.3
0.791602,23.8011,395.84
0.792725,23.7494,396.38
0.793896,23.85,396.92
0.79502,23.785,397.46
0.796045,23.7799,398
0.79707,23.9064,398.54
0.798096,23.8395,399.08
0.799121,23.8561,399.62
0.800293,23.8971,400.16
0.801416,23.7388,400.7
0.80249,23.8605,401.24
0.803516,23.955,401.78
0.804541,23.8139,402.32
0.805615,23.8708,402.86
0.806787,23.8896,403.4
0.80791,23.759,403.94
0.809033,23.9162,404.48
0.810059,23.9189,405.02
0.811084,23.821,405.56
0.812109,23.9139,406.1
0.813281,23.8782,406.64
0.814404,23.786,407.18
0.815479,23.9132,407.72
0.816504,23.7514,408.26
0.817529,23.8212,408.8
0.818555,23.9319,409.34
0.819678,23.7755,409.88
0.82085,23.8366,410.42
0.822022,23.9964,410.96
0.823047,23.85,411.5
0.824072,23.8555,412.04
0.825147,23.8724,412.58
0.82627,23.785,413.12
0.827393,23.9103,413.66
0.828467,23.9461,414.2
0.829541,23.785,414.74
0.830566,23.9098,415.28
0.831592,23.9587,415.82
0.832666,23.7934,416.36
0.833789,23.8838,416.9
0.834912,23.8794,417.44
0.835986,23.7758,417.98
0.837012,23.8838,418.52
0.837988,23.9617,419.06
0.839111,23.7227,419.6
0.840283,23.9657,420.14
0.841406,23.9206,420.68
0.842529,23.8591,421.22
0.843555,23.9742,421.76
0.84458,23.9895,422.3
0.845605,23.848,422.84
0.846777,23.9944,423.38
0.8479,24.0234,423.92
0.848975,23.908,424.46
0.85,24.0141,425
0.851025,24.0251,425.54
0.852051,23.9332,426.08
0.853223,24.0281,426.62
0.854395,24.0551,427.16
0.855469,23.8725,427.7
0.856543,24.093,428.24
0.857568,24.095,428.78
0.858545,23.9305,429.32
0.859717,24.0988,429.86
0.86084,24.1154,430.4
0.861963,24.0041,430.94
0.863037,24.1014,431.48
0.864014,24.1079,432.02
0.865039,23.9969,432.56
0.866162,24.2293,433.1
0.867285,24.2429,433.64
0.868359,24.0979,434.18
0.869434,24.218,434.72
0.870459,24.1812,435.26
0.871533,24.049,435.8
0.872607,24.178,436.34
0.873779,24.1854,436.88
0.874902,24.1128,437.42
0.875977,24.152,437.96
0.877051,24.1539,438.5
0.878027,24.0348,439.04
0.879102,24.2511,439.58
0.880225,24.2318,440.12
0.881396,24.0577,440.66
0.882471,24.1632,441.2
0.883496,24.1937,441.74
0.884521,24.0805,442.28
0.885547,24.3074,442.82
0.886719,24.1431,443.36
0.887842,24.159,443.9
0.888965,24.178,444.44
0.88999,24.2267,444.98
0.891064,24.1199,445.52
0.892041,24.2322,446.06
0.893213,24.2505,446.6
0.894385,24.1878,447.14
0.89541,24.3098,447.68
0.896484,24.2706,448.22
0.897461,24.1804,448.76
0.898486,24.3405,449.3
0.899609,24.2455,449.84
0.900781,24.2179,450.38
0.901855,24.3281,450.92
0.90293,24.2449,451.46
0.903955,24.064,452
0.90498,24.1185,452.54
0.906104,23.9103,453.08
0.907275,23.8581,453.62
0.908398,24.0251,454.16
0.909424,23.8921,454.7
0.910498,23.8898,455.24
0.911523,23.9978,455.78
0.912598,23.9058,456.32
0.91377,23.9347,456.86
0.914893,24.042,457.4
0.915918,23.9288,457.94
0.916943,23.9707,458.48
0.917969,23.9582,459.02
0.919043,23.8849,459.56
0.920215,23.9866,460.1
0.921338,24.0415,460.64
0.922461,23.8773,461.18
0.923486,24.0632,461.72
0.924512,24.0946,462.26
0.925537,23.9372,462.8
0.926709,24.0606,463.34
0.9277832,24.0346,463.88
0.928906,23.9118,464.42
0.929932,24.1052,464.96
0.930957,23.9692,465.5
0.931982,24.0203,466.04
0.933105,24.1809,466.58
0.934277,23.99,467.12
0.935352,24.0418,467.66
0.936377,24.1973,468.2
0.937402,24.0992,468.74
0.938428,24.1398,469.28
0.939551,24.1358,469.82
0.940723,23.9969,470.36
0.941846,24.0459,470.9
0.94292,24.0659,471.44
0.943945,24.0403,471.98
0.944971,24.1262,472.52
0.946094,24.1192,473.06
0.947266,24.0395,473.6
0.94834,24.2063,474.14
0.949414,24.1134,474.68
0.950439,24.1102,475.22
0.951465,24.1862,475.76
0.952539,24.0359,476.3
0.953711,24.1528,476.84
0.954834,24.2481,477.38
0.955908,24.0737,477.92
0.956934,24.1328,478.46
0.957959,24.0893,479
0.959033,24.0187,479.54
0.960156,24.2058,480.08
0.961279,24.1036,480.62
0.962402,24.1104,481.16
0.963428,24.1599,481.7
0.964453,24.1509,482.24
0.965479,24.1071,482.78
0.966602,24.2009,483.32
0.967725,24.0653,483.86
0.968799,24.167,484.4
0.969873,24.2628,484.94
0.97085,24.0881,485.48
0.971924,24.2328,486.02
0.973047,24.2325,486.56
0.97417,24.0852,487.1
0.975342,24.1915,487.64
0.976367,23.9918,488.18
0.977393,24.046,488.72
0.978418,24.2258,489.26
0.97959,24.073,489.8
0.980713,24.1804,490.34
0.981836,24.2777,490.88
0.98291,24.095,491.42
0.983887,24.1825,491.96
0.984912,24.2368,492.5
0.986035,24.0949,493.04
0.987207,24.3316,493.58
0.988281,24.1794,494.12
0.989404,24.2123,494.66
0.99043,24.1846,495.2
0.991455,24.123,495.74
0.992529,24.1819,496.28
0.993701,24.2372,496.82
0.994824,24.1341,497.36
0.99585,24.1657,497.9
0.996924,24.2545,498.44
0.9979,24.058,498.98
0.998926,24.1925,499.52
1.0001,24.2414,500.06
1.00122,24.1629,500.6
1.00229,24.3783,501.14
1.00332,24.1117,501.68
1.00435,24.164,502.22
1.00537,24.2762,502.76
1.00654,24.1764,503.3
1.00771,24.2285,503.84
1.00884,24.2839,504.38
1.00986,24.1907,504.92
1.01089,24.2403,505.46
1.01191,24.2167,506
1.01309,24.1737,506.54
1.01421,24.1793,507.08
1.01528,24.1982,507.62
1.01631,24.1563,508.16
1.01733,24.2582,508.7
1.01836,24.1504,509.24
1.01948,24.1835,509.78
1.02065,24.328,510.32
1.02178,24.1602,510.86
1.02285,24.2376,511.4
1.02388,24.2887,511.94
1.0249,24.1566,512.48
1.02603,24.2938,513.02
1.0272,24.3059,513.56
1.02832,24.2877,514.1
1.02935,24.3993,514.64
1.03037,24.2654,515.18
1.0314,24.2868,515.72
1.03242,24.4668,516.26
1.03359,24.2923,516.8
1.03467,24.3144,517.34
1.03579,24.3139,517.88
1.03682,24.2729,518.42
1.03779,24.4181,518.96
1.03887,24.4014,519.5
1.04004,24.277,520.04
1.04121,24.3992,520.58
1.04229,24.3729,521.12
1.04336,24.3298,521.66
1.04438,24.451,522.2
1.04541,24.3426,522.74
1.04658,24.4084,523.28
1.04771,24.4485,523.82
1.04878,24.3564,524.36
1.0498,24.3711,524.9
1.05083,24.3778,525.44
1.05186,24.3727,525.98
1.05298,24.4476,526.52
1.05415,24.4319,527.06
1.05527,24.3451,527.6
1.05635,24.4933,528.14
1.05737,24.325,528.68
1.0584,24.3417,529.22
1.05947,24.509,529.76
1.06069,24.366,530.3
1.06177,24.4244,530.84
1.06279,24.4898,531.38
1.06387,24.293,531.92
1.06484,24.4353,532.46
1.06592,24.4362,533
1.06709,24.2418,533.54
1.06816,24.4319,534.08
1.06929,24.3998,534.62
1.07026,24.2793,535.16
1.07129,24.398,535.7
1.07241,24.3562,536.24
1.07358,24.3523,536.78
1.07471,24.4665,537.32
1.07583,24.3598,537.86
1.07681,24.3532,538.4
1.07783,24.5177,538.94
1.07886,24.4093,539.48
1.08003,24.313,540.02
1.08115,24.5594,540.56
1.08223,24.3252,541.1
1.0833,24.4298,541.64
1.08433,24.4867,542.18
1.08535,24.3689,542.72
1.08652,24.4271,543.26
1.08765,24.441,543.8
1.08877,24.3491,544.34
1.08984,24.4626,544.88
1.09082,24.5853,545.42
1.09189,24.3244,545.96
1.09297,24.4989,546.5
1.09414,24.3779,547.04
1.09521,24.3489,547.58
1.09629,24.5144,548.12
1.09731,24.4081,548.66
1.09829,24.3238,549.2
1.09941,24.5681,549.74
1.10059,24.4525,550.28
1.10166,24.367,550.82
1.10269,24.5406,551.36
1.10376,24.3809,551.9
1.10479,24.4411,552.44
1.10586,24.5472,552.98
1.10708,24.4282,553.52
1.1082,24.4647,554.06
1.10923,24.5804,554.6
1.11025,24.4436,555.14
1.11128,24.464,555.68
1.11235,24.4713,556.22
1.11353,24.4347,556.76
1.11465,24.47,557.3
1.11577,24.4394,557.84
1.1168,24.3493,558.38
1.11777,24.6367,558.92
1.11885,24.5353,559.46
1.11997,24.4239,560
1.12114,24.5597,560.54
1.12227,24.4973,561.08
1.12329,24.3897,561.62
1.12432,24.6134,562.16
1.12534,24.4832,562.7
1.12646,24.5387,563.24
1.12764,24.6054,563.78
1.12871,24.5574,564.32
1.12979,24.54,564.86
1.13076,24.5581,565.4
1.13179,24.5441,565.94
1.13291,24.4924,566.48
1.13403,24.5763,567.02
1.13516,24.4569,567.56
1.13623,24.563,568.1
1.13721,24.5704,568.64
1.13823,24.4549,569.18
1.13936,24.5442,569.72
1.14053,24.5233,570.26
1.14165,24.444,570.8
1.14272,24.6162,571.34
1.14375,24.5358,571.88
1.14478,24.487,572.42
1.1459,24.5963,572.96
1.14707,24.6081,573.5
1.14819,24.4219,574.04
1.14922,24.5994,574.58
1.15024,24.548,575.12
1.15127,24.4409,575.66
1.15234,24.6907,576.2
1.15347,24.5224,576.74
1.15464,24.5034,577.28
1.15576,24.674,577.82
1.15674,24.4049,578.36
1.15776,24.5391,578.9
1.15879,24.5879,579.44
1.15996,24.4388,579.98
1.16108,24.5426,580.52
1.16221,24.5577,581.06
1.16323,24.4361,581.6
1.16426,24.5626,582.14
1.16528,24.5136,582.68
1.16641,24.4362,583.22
1.16753,24.6068,583.76
1.16865,24.5771,584.3
1.16968,24.4788,584.84
1.1707,24.6116,585.38
1.17173,24.5542,585.92
1.17285,24.4222,586.46
1.17402,24.6418,587
1.17515,24.5202,587.54
1.17622,24.4222,588.08
1.1772,24.5835,588.62
1.17822,24.4257,589.16
1.17935,24.3628,589.7
1.18052,24.5593,590.24
1.18164,24.3798,590.78
1.18271,24.4513,591.32
1.18374,24.5684,591.86
1.18477,24.4961,592.4
1.18584,24.4804,592.94
1.18701,24.5924,593.48
1.18809,24.4729,594.02
1.18921,24.4946,594.56
1.19023,24.5162,595.1
1.19126,24.4129,595.64
1.19233,24.531,596.18
1.19346,24.5751,596.72
1.19463,24.4424,597.26
1.1957,24.5585,597.8
1.19673,24.5886,598.34
1.19771,24.4295,598.88
1.19873,24.6355,599.42
1.19985,24.6207,599.96
1.20103,24.4633,600.5
1.2021,24.5996,601.04
1.20312,24.5193,601.58
1.20415,24.4826,602.12
1.20522,24.5945,602.66
1.20635,24.5708,603.2
1.20752,24.5257,603.74
1.20859,24.6341,604.28
1.209668,24.4114,604.82
1.21069,24.5304,605.36
1.21172,24.5903,605.9
1.21284,24.4682,606.44
1.21396,24.5131,606.98
1.21509,24.5891,607.52
1.21616,24.5003,608.06
1.21714,24.5459,608.6
1.21821,24.5314,609.14
1.21929,24.4119,609.68
1.22046,24.5963,610.22
1.22163,24.5367,610.76
1.22266,24.4763,611.3
1.22373,24.5632,611.84
1.22471,24.548,612.38
1.22583,24.549,612.92
1.22695,24.6217,613.46
1.22812,24.5277,614
1.22915,24.5345,614.54
1.23018,24.6879,615.08
1.2312,24.4924,615.62
1.23228,24.545,616.16
1.2334,24.5968,616.7
1.23452,24.5059,617.24
1.2356,24.5107,617.78
1.23662,24.5106,618.32
1.23765,24.4244,618.86
1.23867,24.5265,619.4
1.23984,24.6311,619.94
1.24097,24.4521,620.48
1.24209,24.6468,621.02
1.24316,24.5931,621.56
1.24419,24.4574,622.1
1.24521,24.5776,622.64
1.24634,24.5089,623.18
1.24751,24.4892,623.72
1.24858,24.6529,624.26
1.24961,24.397,624.8
1.25063,24.5486,625.34
1.25166,24.6886,625.88
1.25278,24.5628,626.42
1.25391,24.5112,626.96
1.25508,24.5365,627.5
1.25615,24.419,628.04
1.25718,24.4721,628.58
1.25815,24.4726,629.12
1.25928,24.3132,629.66
1.26045,24.4561,630.2
1.26157,24.5328,630.74
1.26265,24.3665,631.28
1.26367,24.4731,631.82
1.26465,24.4999,632.36
1.26572,24.3934,632.9
1.26685,24.4838,633.44
1.26797,24.4422,633.98
1.26909,24.3984,634.52
1.27012,24.4942,635.06
1.27109,24.4998,635.6
1.27222,24.3166,636.14
1.27334,24.5025,636.68
1.27451,24.4294,637.22
1.27559,24.3498,637.76
1.27661,24.5436,638.3
1.27764,24.4252,638.84
1.27866,24.3974,639.38
1.27983,24.4677,639.92
1.28096,24.4975,640.46
1.28208,24.4034,641
1.28311,24.5098,641.54
1.28413,24.4871,642.08
1.28516,24.3603,642.62
1.28628,24.5702,643.16
1.28745,24.487,643.7
1.28853,24.4057,644.24
1.28965,24.5433,644.78
1.29067,24.3802,645.32
1.29165,24.4098,645.86
1.29277,24.5395,646.4
1.2939,24.4698,646.94
1.29502,24.4491,647.48
1.29604,24.5402,648.02
1.29712,24.423,648.56
1.2981,24.4729,649.1
1.29917,24.5591,649.64
1.30029,24.4285,650.18
1.30146,24.5063,650.72
1.30254,24.527,651.26
1.30356,24.4838,651.8
1.30459,24.443,652.34
1.30566,24.5177,652.88
1.30684,24.4619,653.42
1.30796,24.5342,653.96
1.30908,24.5874,654.5
1.31011,24.3883,655.04
1.31113,24.4877,655.58
1.31216,24.5616,656.12
1.31333,24.4489,656.66
1.31445,24.487,657.2
1.31553,24.5072,657.74
1.3166,24.3844,658.28
1.31758,24.566,658.82
1.3186,24.5122,659.36
1.31978,24.4307,659.9
1.32095,24.5359,660.44
1.32207,24.4884,660.98
1.32314,24.3873,661.52
1.32412,24.5161,662.06
1.32515,24.451,662.6
1.32627,24.471,663.14
1.32739,24.5267,663.68
1.32852,24.4687,664.22
1.32954,24.4274,664.76
1.33057,24.5142,665.3
1.33159,24.4607,665.84
1.33271,24.4312,666.38
1.33384,24.6148,666.92
1.33491,24.4031,667.46
1.33599,24.5288,668
1.33706,24.6628,668.54
1.33804,24.4632,669.08
1.33911,24.5804,669.62
1.34028,24.6724,670.16
1.34146,24.4079,670.7
1.34253,24.5326,671.24
1.34355,24.5794,671.78
1.34458,24.4135,672.32
1.34565,24.5007,672.86
1.34683,24.6244,673.4
1.34795,24.4691,673.94
1.34902,24.5152,674.48
1.35005,24.5867,675.02
1.35107,24.3688,675.56
1.3521,24.5369,676.1
1.35327,24.5726,676.64
1.35439,24.4614,677.18
1.35552,24.552,677.72
1.35654,24.5708,678.26
1.35757,24.4572,678.8
1.35859,24.5181,679.34
1.35972,24.6624,679.88
1.36089,24.5576,680.42
1.36201,24.7021,680.96
1.36309,24.5592,681.5
1.36406,24.483,682.04
1.36509,24.6729,682.58
1.36621,24.5772,683.12
1.36733,24.57,683.66
1.36846,24.6514,684.2
1.36948,24.5889,684.74
1.37051,24.5976,685.28
1.37153,24.6113,685.82
1.37261,24.5929,686.36
1.37378,24.6483,686.9
1.3749,24.7005,687.44
1.37598,24.57,687.98
1.377,24.6171,688.52
1.37808,24.7515,689.06
1.3791,24.5103,689.6
1.38032,24.5943,690.14
1.38145,24.6457,690.68
1.38252,24.5998,691.22
1.38354,24.5888,691.76
1.38457,24.6816,692.3
1.3856,24.4884,692.84
1.38677,24.5965,693.38
1.38789,24.7457,693.92
1.38901,24.5076,694.46
1.39004,24.6222,695
1.39106,24.6156,695.54
1.39214,24.537,696.08
1.39326,24.57,696.62
1.39438,24.6071,697.16
1.39546,24.4901,697.7
1.39653,24.6997,698.24
1.39756,24.6176,698.78
1.39854,24.5282,699.32
1.39966,24.6952,699.86
1.40078,24.6059,700.4
1.4019,24.5156,700.94
1.40293,24.7469,701.48
1.40396,24.5384,702.02
1.40503,24.6451,702.56
1.4061,24.7297,703.1
1.40728,24.6041,703.64
1.4084,24.6361,704.18
1.40947,24.7765,704.72
1.41055,24.5071,705.26
1.41152,24.644,705.8
1.41265,24.6823,706.34
1.41377,24.5828,706.88
1.41489,24.6326,707.42
1.41597,24.6107,707.96
1.41699,24.4852,708.5
1.41797,24.617,709.04
1.41904,24.6534,709.58
1.42026,24.5151,710.12
1.42139,24.6033,710.66
1.42246,24.6076,711.2
1.42354,24.4805,711.74
1.42451,24.6497,712.28
1.42559,24.5465,712.82
1.42676,24.4851,713.36
1.42788,24.6603,713.9
1.42896,24.5899,714.44
1.43003,24.5817,714.98
1.43101,24.7202,715.52
1.43203,24.5978,716.06
1.43315,24.596,716.6
1.43428,24.6928,717.14
1.43535,24.6438,717.68
1.43643,24.5414,718.22
1.4374,24.6574,718.76
1.43848,24.5922,719.3
1.4396,24.545,719.84
1.44077,24.7035,720.38
1.44189,24.6123,720.92
1.44297,24.5818,721.46
1.44399,24.7291,722
1.44502,24.6095,722.54
1.44614,24.5928,723.08
1.44731,24.7702,723.62
1.44839,24.6257,724.16
1.44941,24.5695,724.7
1.45049,24.6691,725.24
1.45146,24.5411,725.78
1.45254,24.6195,726.32
1.45371,24.7136,726.86
1.45483,24.5674,727.4
1.45591,24.5141,727.94
1.45698,24.7252,728.48
1.45796,24.5325,729.02
1.45908,24.5741,729.56
1.46025,24.6879,730.1
1.46138,24.4841,730.64
1.46245,24.547,731.18
1.46348,24.6741,731.72
1.46445,24.4634,732.26
1.46553,24.5699,732.8
1.46665,24.6223,733.34
1.46777,24.4359,733.88
1.46885,24.564,734.42
1.46992,24.5958,734.96
1.47095,24.4278,735.5
1.47197,24.5517,736.04
1.4731,24.5854,736.58
1.47427,24.4984,737.12
1.47539,24.6214,737.66
1.47646,24.5562,738.2
1.47744,24.4075,738.74
1.47847,24.6304,739.28
1.47959,24.593,739.82
1.48076,24.4799,740.36
1.48184,24.558,740.9
1.48291,24.5378,741.44
1.48394,24.4923,741.98
1.48496,24.6275,742.52
1.48604,24.4102,743.06
1.48726,24.4434,743.6
1.48838,24.5691,744.14
1.48945,24.4055,744.68
1.49048,24.3666,745.22
1.4915,24.5811,745.76
1.49253,24.3915,746.3
1.4937,24.4729,746.84
1.49482,24.5409,747.38
1.4959,24.4285,747.92
1.49692,24.4933,748.46
1.4979,24.5077,749
1.49897,24.4565,749.54
1.50015,24.4977,750.08
1.50127,24.4523,750.62
1.50229,24.3902,751.16
1.50337,24.4045,751.7
1.50444,24.4988,752.24
1.50547,24.3743,752.78
1.50664,24.3974,753.32
1.50776,24.4783,753.86
1.50889,24.3071,754.4
1.50991,24.4555,754.94
1.51094,24.4551,755.48
1.51196,24.2784,756.02
1.51313,24.4942,756.56
1.51426,24.434,757.1
1.51538,24.3469,757.64
1.51641,24.4922,758.18
1.51743,24.4174,758.72
1.51846,24.3162,759.26
1.51953,24.4794,759.8
1.5207,24.4614,760.34
1.52183,24.3264,760.88
1.5229,24.4911,761.42
1.52393,24.377,761.96
1.52495,24.3645,762.5
1.52607,24.4596,763.04
1.5272,24.3174,763.58
1.52832,24.2995,764.12
1.52939,24.433,764.66
1.53042,24.3532,765.2
1.5314,24.2927,765.74
1.53247,24.4689,766.28
1.53359,24.3127,766.82
1.53472,24.3536,767.36
1.53579,24.4139,767.9
1.53687,24.2704,768.44
1.53784,24.3663,768.98
1.53892,24.4364,769.52
1.54009,24.302,770.06
1.54126,24.2907,770.6
1.54233,24.2858,771.14
1.54336,24.1976,771.68
1.54438,24.3466,772.22
1.54546,24.3529,772.76
1.54663,24.3364,773.3
1.54775,24.3487,773.84
1.54883,24.3772,774.38
1.54985,24.227,774.92
1.55093,24.3519,775.46
1.5519,24.3063,776
1.55303,24.2426,776.54
1.5542,24.3526,777.08
1.55532,24.3048,777.62
1.5564,24.2624,778.16
1.55737,24.3508,778.7
1.55845,24.242,779.24
1.55952,24.2064,779.78
1.56069,24.2644,780.32
1.56177,24.2015,780.86
1.56284,24.1556,781.4
1.56387,24.3073,781.94
1.56489,24.3076,782.48
1.56597,24.2914,783.02
1.56714,24.412,783.56
1.56821,24.2218,784.1
1.56929,24.216,784.64
1.57031,24.3734,785.18
1.57134,24.1474,785.72
1.57241,24.2835,786.26
1.57358,24.3024,786.8
1.57471,24.1913,787.34
1.57578,24.2688,787.88
1.57686,24.2097,788.42
1.57783,24.1354,788.96
1.57891,24.2978,789.5
1.58008,24.2985,790.04
1.58125,24.1575,790.58
1.58232,24.3199,791.12
1.58335,24.1543,791.66
1.58438,24.193,792.2
1.5854,24.2261,792.74
1.58657,24.0991,793.28
1.5877,24.3085,793.82
1.58882,24.2271,794.36
1.58984,24.1546,794.9
1.59087,24.2282,795.44
1.59189,24.2746,795.98
1.59307,24.2649,796.52
1.5937,24.1776,796.82