File: Data/Thesis_Samples_Data/Flexural_Layered_3/DAQ- Crosshead, … - (Timed).txt
File Path: C:\Users\Lab User\Desktop\Will\Thesis Tests\Test Run 3 04-8-22 14 45 16 PM\DAQ- Crosshead, … - (Timed).txt
Test: MTS EM Flexure (3-Point Bend) - Will 1
Test Run: Test Run 3
Date: 4/8/2022 2:21:31 PM

Crosshead 	Load 	Time
mm	N	sec
4.88281e-05	4.32616	0.02
0.00185547	5.13656	0.96
0.00371094	6.25244	1.9
0.00551758	7.26594	2.84
0.00756836	8.2551	3.78
0.00947266	9.39687	4.72
0.0112793	10.3803	5.66
0.0131348	11.2739	6.6
0.0150879	12.3419	7.54
0.0169434	13.3841	8.48
0.01875	14.1348	9.42
0.0207031	15.2145	10.36
0.0226562	16.1636	11.3
0.0244629	16.9653	12.24
0.0263184	17.9635	13.18
0.0282715	19.0386	14.12
0.0301758	19.7974	15.06
0.0318848	20.7228	16
0.0338867	21.8001	16.94
0.035791	22.5262	17.88
0.0375977	23.4954	18.82
0.0394531	24.4458	19.76
0.0414551	25.1815	20.7
0.0433105	26.2197	21.64
0.0450684	27.0583	22.58
0.0470215	27.8907	23.52
0.0489746	28.8568	24.46
0.0507813	29.7152	25.4
0.0525879	30.2382	26.34
0.0546387	30.8339	27.28
0.0564941	31.3717	28.22
0.0583008	31.2734	29.16
0.0602051	29.0748	30.1
0.0621582	22.1629	31.04
0.0639648	21.4603	31.98
0.0657227	21.7525	32.92
0.0677246	22.366	33.86
0.0696289	22.7696	34.8
0.0713867	23.2691	35.74
0.0733398	23.9193	36.68
0.075293	24.2206	37.62
0.0771484	24.4967	38.56
0.0789062	24.8307	39.5
0.0809082	24.8848	40.44
0.0828125	25.1174	41.38
0.0845703	25.4391	42.32
0.0864746	25.5523	43.26
0.0884766	17.5028	44.2
0.090332	17.918	45.14
0.0921387	18.1552	46.08
0.0940918	18.6039	47.02
0.0959961	19.2459	47.96
0.0977539	19.6938	48.9
0.0996094	20.1779	49.84
0.101563	20.6738	50.78
0.103418	21.1405	51.72
0.105176	21.4897	52.66
0.107178	22.1667	53.6
0.109131	22.6959	54.54
0.110938	22.9119	55.48
0.112793	23.3862	56.42
0.114795	23.7691	57.36
0.11665	23.9466	58.3
0.118408	24.2533	59.24
0.120361	24.8215	60.18
0.122314	25.0017	61.12
0.124121	25.3387	62.06
0.125928	25.813	63
0.12793	25.9612	63.94
0.129834	26.3858	64.88
0.131592	26.9483	65.82
0.133496	27.4391	66.76
0.1354	27.8152	67.7
0.137256	28.2797	68.64
0.139062	28.7148	69.58
0.141016	26.6232	70.52
0.142969	26.3803	71.46
0.144727	26.5955	72.4
0.14668	26.7157	73.34
0.148633	27.1103	74.28
0.150439	27.5636	75.22
0.152246	27.8104	76.16
0.154248	27.9785	77.1
0.156152	28.4748	78.04
0.15791	28.7727	78.98
0.159863	29.0712	79.92
0.161816	29.5043	80.86
0.163623	29.7166	81.8
0.165381	29.9308	82.74
0.167334	30.3339	83.68
0.169238	30.8797	84.62
0.171045	31.16	85.56
0.1729	31.3646	86.5
0.174902	31.746	87.44
0.176807	31.915	88.38
0.178564	32.073	89.32
0.180518	32.263	90.26
0.182422	32.6565	91.2
0.184229	32.8	92.14
0.186035	33.0066	93.08
0.188086	33.5658	94.02
0.189941	33.8847	94.96
0.191748	34.0466	95.9
0.19375	34.4279	96.84
0.195654	34.709	97.78
0.197461	34.9216	98.72
0.199219	35.2153	99.66
0.201221	35.6783	100.6
0.203076	35.8541	101.54
0.204834	36.0791	102.48
0.206787	36.5746	103.42
0.208789	36.9672	104.36
0.210596	37.3103	105.3
0.212451	37.6425	106.24
0.214404	38.1192	107.18
0.216309	38.2344	108.12
0.218066	38.4431	109.06
0.219971	38.749	110
0.221973	38.9101	110.94
0.223779	39.0995	111.88
0.225586	39.5268	112.82
0.227588	39.8984	113.76
0.229492	39.7964	114.7
0.23125	39.9743	115.64
0.233105	40.3083	116.58
0.235059	40.5433	117.52
0.236914	40.6668	118.46
0.238721	37.0577	119.4
0.240723	34.633	120.34
0.242627	17.1042	121.28
0.244434	17.3478	122.22
0.246289	17.6555	123.16
0.248242	17.8456	124.1
0.250098	17.9982	125.04
0.251855	18.3393	125.98
0.253857	18.4146	126.92
0.255811	18.5252	127.86
0.257617	18.819	128.8
0.259424	18.7855	129.74
0.261426	18.8091	130.68
0.263281	19.0342	131.62
0.265039	19.2521	132.56
0.266943	19.471	133.5
0.268896	19.5335	134.44
0.270703	19.8469	135.38
0.272559	20.0447	136.32
0.274561	20.172	137.26
0.276465	20.4498	138.2
0.278223	20.7088	139.14
0.280176	20.8362	140.08
0.282129	20.9939	141.02
0.283936	21.2592	141.96
0.285693	21.3593	142.9
0.287744	21.4209	143.84
0.289648	21.7302	144.78
0.291406	22.0185	145.72
0.293311	22.0274	146.66
0.295264	22.274	147.6
0.297119	22.4765	148.54
0.298877	22.4616	149.48
0.30083	22.6397	150.42
0.302734	22.8662	151.36
0.304492	23.1296	152.3
0.306396	23.1035	153.24
0.308398	23.2606	154.18
0.310254	22.9137	155.12
0.312061	22.8831	156.06
0.314062	22.9962	157
0.315967	23.3107	157.94
0.317725	23.3774	158.88
0.31958	23.4143	159.82
0.321582	23.7027	160.76
0.323438	23.7505	161.7
0.325195	23.8347	162.64
0.327197	24.0663	163.58
0.329102	24.1963	164.52
0.330908	24.1609	165.46
0.332715	24.1144	166.4
0.334717	24.1753	167.34
0.336572	24.1515	168.28
0.33833	24.3086	169.22
0.340283	24.5394	170.16
0.342236	24.5904	171.1
0.344043	24.7511	172.04
0.345898	25.0835	172.98
0.3479	25.1189	173.92
0.349805	25.245	174.86
0.351563	25.4415	175.8
0.353467	25.6689	176.74
0.35542	25.8157	177.68
0.357275	26.0515	178.62
0.359082	25.8016	179.56
0.361084	25.6826	180.5
0.362939	25.079	181.44
0.364697	25.1147	182.38
0.366602	25.0488	183.32
0.368555	25.1512	184.26
0.370361	23.7243	185.2
0.372168	23.6918	186.14
0.37417	23.907	187.08
0.376074	24.028	188.02
0.377881	24.018	188.96
0.379785	24.2205	189.9
0.381738	24.274	190.84
0.383594	24.1801	191.78
0.385352	24.261	192.72
0.387354	21.9819	193.66
0.389258	21.5245	194.6
0.391064	21.6689	195.54
0.39292	21.6745	196.48
0.394922	21.4644	197.42
0.396777	21.3811	198.36
0.398535	12.0803	199.3
0.400439	12.0144	200.24
0.402393	12.2272	201.18
0.404199	12.3332	202.12
0.406006	12.2537	203.06
0.408057	12.5164	204
0.409912	12.6119	204.94
0.411719	12.5497	205.88
0.413672	12.6815	206.82
0.415576	12.8745	207.76
0.417383	12.7331	208.7
0.419189	12.9614	209.64
0.421191	13.0705	210.58
0.423096	12.9634	211.52
0.424854	13.0869	212.46
0.426807	13.283	213.4
0.42876	13.1938	214.34
0.430566	13.3999	215.28
0.432324	13.4367	216.22
0.434326	13.3057	217.16
0.43623	13.4529	218.1
0.437988	13.6445	219.04
0.439941	13.6141	219.98
0.441895	13.689	220.92
0.44375	13.8001	221.86
0.445508	13.695	222.8
0.44751	13.8976	223.74
0.449414	13.9934	224.68
0.451172	13.9289	225.62
0.453076	13.9847	226.56
0.455078	14.1492	227.5
0.456934	14.1125	228.44
0.458691	14.2424	229.38
0.460693	14.343	230.32
0.462598	14.2434	231.26
0.464355	14.4268	232.2
0.466162	14.6168	233.14
0.468164	14.5394	234.08
0.47002	14.565	235.02
0.471826	14.7204	235.96
0.473828	14.7301	236.9
0.475781	14.8034	237.84
0.477539	15.0061	238.78
0.479395	14.877	239.72
0.481396	15.01	240.66
0.483203	15.1088	241.6
0.48501	14.9785	242.54
0.486963	15.0159	243.48
0.488916	15.2638	244.42
0.490771	15.1198	245.36
0.492529	15.2032	246.3
0.494531	15.3641	247.24
0.496387	15.4365	248.18
0.498193	15.4916	249.12
0.500049	15.6024	250.06
0.502051	15.5585	251
0.503809	15.6349	251.94
0.505615	15.7334	252.88
0.507666	15.7774	253.82
0.50957	15.8356	254.76
0.511377	15.9777	255.7
0.513281	15.993	256.64
0.515234	16.0086	257.58
0.517041	16.196	258.52
0.518848	16.1372	259.46
0.52085	16.1697	260.4
0.522754	16.294	261.34
0.524561	16.3711	262.28
0.526416	16.286	263.22
0.528418	16.583	264.16
0.530225	16.5396	265.1
0.531982	16.4554	266.04
0.533936	16.6817	266.98
0.535889	16.7514	267.92
0.537646	16.7601	268.86
0.539502	16.8931	269.8
0.541504	16.9998	270.74
0.543359	16.8618	271.68
0.545166	17.0425	272.62
0.547119	17.0854	273.56
0.549072	17.114	274.5
0.550879	17.2179	275.44
0.552686	17.2727	276.38
0.554688	17.1953	277.32
0.556592	17.2844	278.26
0.55835	17.452	279.2
0.560303	17.4156	280.14
0.562256	17.4363	281.08
0.564014	17.5822	282.02
0.56582	17.51	282.96
0.567822	17.5959	283.9
0.569678	17.7263	284.84
0.571484	17.6753	285.78
0.573389	17.7407	286.72
0.575391	17.851	287.66
0.577246	17.7967	288.6
0.579004	17.8343	289.54
0.581006	18.0431	290.48
0.582861	17.9755	291.42
0.584668	17.9022	292.36
0.586523	18.191	293.3
0.588525	18.1248	294.24
0.590381	18.1383	295.18
0.592188	18.2844	296.12
0.594189	18.2913	297.06
0.596094	18.2122	298
0.597852	18.4597	298.94
0.599707	18.4021	299.88
0.60166	18.4697	300.82
0.603516	18.5474	301.76
0.605273	18.6138	302.7
0.607275	18.4889	303.64
0.609229	18.6119	304.58
0.611035	18.652	305.52
0.612891	18.5847	306.46
0.614844	18.573	307.4
0.616699	18.6998	308.34
0.618457	18.5547	309.28
0.620459	18.7302	310.22
0.622363	18.7602	311.16
0.624219	18.702	312.1
0.626025	18.8163	313.04
0.628027	18.9062	313.98
0.629883	18.8731	314.92
0.631641	19.0711	315.86
0.633545	19.0821	316.8
0.635498	18.9757	317.74
0.637305	19.0265	318.68
0.639111	19.1543	319.62
0.641162	19.1009	320.56
0.643066	19.1634	321.5
0.644824	19.2762	322.44
0.646728	19.2796	323.38
0.648682	19.3975	324.32
0.650488	19.5342	325.26
0.652295	19.4183	326.2
0.654346	19.4216	327.14
0.65625	19.5662	328.08
0.658057	19.5703	329.02
0.659912	19.6306	329.96
0.661865	19.7533	330.9
0.663672	19.6157	331.84
0.66543	19.4467	332.78
0.667432	19.7039	333.72
0.669336	19.7048	334.66
0.671143	19.6317	335.6
0.673047	19.8307	336.54
0.675	19.7343	337.48
0.676904	19.7506	338.42
0.678662	19.9567	339.36
0.680615	19.8885	340.3
0.682568	19.8432	341.24
0.684326	20.072	342.18
0.686182	20.0313	343.12
0.688184	20.0267	344.06
0.690088	20.216	345
0.691846	20.1298	345.94
0.693799	20.1466	346.88
0.695703	20.2532	347.82
0.69751	20.3018	348.76
0.699316	20.2261	349.7
0.70127	20.2493	350.64
0.703174	20.3638	351.58
0.704932	20.3429	352.52
0.706836	20.2186	353.46
0.708838	20.3989	354.4
0.710693	20.341	355.34
0.7125	20.3605	356.28
0.714502	20.5354	357.22
0.716406	20.4488	358.16
0.718164	20.4793	359.1
0.720068	20.6695	360.04
0.72207	20.5846	360.98
0.723877	20.5824	361.92
0.725635	20.8208	362.86
0.727637	20.7267	363.8
0.729541	20.6605	364.74
0.731299	20.8364	365.68
0.733203	20.8595	366.62
0.735156	20.7423	367.56
0.737012	21.0255	368.5
0.73877	20.9138	369.44
0.740723	20.9374	370.38
0.742676	21.0402	371.32
0.744482	21.0738	372.26
0.746338	21.0547	373.2
0.748389	21.2326	374.14
0.750195	21.0868	375.08
0.751953	21.075	376.02
0.753955	21.153	376.96
0.755908	21.2581	377.9
0.757666	21.2148	378.84
0.759521	21.3514	379.78
0.761572	21.2809	380.72
0.76333	21.262	381.66
0.765088	21.4234	382.6
0.767041	21.5166	383.54
0.768994	21.4108	384.48
0.770752	21.536	385.42
0.772607	21.5909	386.36
0.774609	21.4849	387.3
0.776514	21.5936	388.24
0.77832	21.7686	389.18
0.780225	21.6853	390.12
0.782178	21.6662	391.06
0.783984	21.7908	392
0.785742	21.7851	392.94
0.787793	21.8095	393.88
0.789697	22.0627	394.82
0.791504	21.9819	395.76
0.793457	21.8768	396.7
0.79541	22.1072	397.64
0.797217	22.0084	398.58
0.798926	21.9867	399.52
0.800928	22.2688	400.46
0.802783	22.1966	401.4
0.80459	22.15	402.34
0.806494	22.4592	403.28
0.808496	22.3333	404.22
0.810352	22.2738	405.16
0.812158	22.4488	406.1
0.814111	22.4763	407.04
0.816016	22.296	407.98
0.817773	22.5317	408.92
0.819629	22.5132	409.86
0.82168	22.3593	410.8
0.823535	22.5777	411.74
0.825293	22.6482	412.68
0.827295	22.6179	413.62
0.829199	22.7028	414.56
0.830957	22.6606	415.5
0.832764	22.6059	416.44
0.834766	22.6547	417.38
0.83667	22.706	418.32
0.838428	22.5532	419.26
0.840381	22.7974	420.2
0.842334	22.8004	421.14
0.844141	22.5772	422.08
0.845947	22.7124	423.02
0.847998	22.7417	423.96
0.849854	22.6994	424.9
0.851611	22.8282	425.84
0.853564	22.9991	426.78
0.855518	22.7926	427.72
0.857373	22.902	428.66
0.859131	22.9591	429.6
0.861133	22.8419	430.54
0.862988	22.9244	431.48
0.864746	23.0534	432.42
0.86665	22.7349	433.36
0.868652	22.8707	434.3
0.870459	23.0064	435.24
0.872266	22.86	436.18
0.874268	22.9716	437.12
0.876172	23.0818	438.06
0.87793	23.0382	439
0.879834	23.0326	439.94
0.881836	23.2544	440.88
0.883643	23.1894	441.82
0.885449	23.2665	442.76
0.887451	23.3165	443.7
0.889355	23.2511	444.64
0.891162	23.3563	445.58
0.893018	23.4572	446.52
0.894971	22.982	447.46
0.896826	23.1399	448.4
0.898584	23.35	449.34
0.900537	23.1749	450.28
0.902441	23.2942	451.22
0.904248	23.3198	452.16
0.906055	23.2801	453.1
0.908105	23.2661	454.04
0.91001	23.3196	454.98
0.911768	23.3677	455.92
0.91377	23.3042	456.86
0.915674	23.5083	457.8
0.91748	23.4674	458.74
0.919287	23.5236	459.68
0.921338	23.5656	460.62
0.923145	23.5477	461.56
0.924951	23.4174	462.5
0.926904	23.622	463.44
0.928857	23.6335	464.38
0.930664	23.4965	465.32
0.932422	23.745	466.26
0.934424	23.6537	467.2
0.936328	23.7162	468.14
0.938086	23.8809	469.08
0.93999	23.7976	470.02
0.941943	23.4734	470.96
0.943799	23.4958	471.9
0.945605	23.4512	472.84
0.947607	23.6215	473.78
0.949512	23.663	474.72
0.95127	23.5759	475.66
0.953174	23.7545	476.6
0.955127	23.8401	477.54
0.957031	23.7951	478.48
0.958789	23.9496	479.42
0.960791	24.039	480.36
0.962647	23.9541	481.3
0.964453	23.9858	482.24
0.96626	24.0038	483.18
0.968262	23.9675	484.12
0.970117	24.0968	485.06
0.971875	24.2324	486
0.973877	24.0086	486.94
0.97583	24.2487	487.88
0.977637	24.276	488.82
0.979443	24.2772	489.76
0.981445	24.2999	490.7
0.983301	24.274	491.64
0.985059	24.2216	492.58
0.987012	24.6016	493.52
0.988965	24.4399	494.46
0.99082	24.328	495.4
0.992627	24.37	496.34
0.994629	24.479	497.28
0.996484	24.4092	498.22
0.998242	22.1901	499.16
1.00015	22.363	500.1
1.0021	22.2404	501.04
1.00391	21.9165	501.98
1.00571	21.9917	502.92
1.00771	21.8376	503.86
1.00967	21.9116	504.8
1.01143	22.042	505.74
1.01338	22.0647	506.68
1.01528	22.1539	507.62
1.01709	22.2065	508.56
1.0189	22.1936	509.5
1.0209	22.307	510.44
1.0228	22.1352	511.38
1.02461	22.2118	512.32
1.02651	22.3072	513.26
1.02847	22.4938	514.2
1.03032	22.3599	515.14
1.03208	22.3716	516.08
1.03403	22.5878	517.02
1.03594	22.6037	517.96
1.03774	22.571	518.9
1.03965	22.7519	519.84
1.0416	22.7728	520.78
1.04346	22.6165	521.72
1.04526	22.8335	522.66
1.04722	22.9475	523.6
1.04912	22.8177	524.54
1.05093	18.5552	525.48
1.05278	18.7782	526.42
1.05479	18.7359	527.36
1.05669	18.7809	528.3
1.05845	18.984	529.24
1.0604	18.9939	530.18
1.0623	18.9523	531.12
1.06406	19.1884	532.06
1.06587	19.1866	533
1.06792	19.1013	533.94
1.06978	19.3869	534.88
1.07153	19.3851	535.82
1.07354	19.0572	536.76
1.07544	15.8506	537.7
1.07729	15.7869	538.64
1.0791	15.7435	539.58
1.0811	15.9281	540.52
1.08296	16.0583	541.46
1.08472	15.9979	542.4
1.08662	16.0796	543.34
1.08867	16.1227	544.28
1.09048	16.0253	545.22
1.09229	16.1194	546.16
1.09424	16.3094	547.1
1.09614	16.1185	548.04
1.0979	16.1309	548.98
1.0998	16.2906	549.92
1.10176	16.2489	550.86
1.10356	16.3005	551.8
1.10537	16.4096	552.74
1.10737	16.2901	553.68
1.10928	16.3212	554.62
1.11108	16.4307	555.56
1.11299	16.5328	556.5
1.11494	16.374	557.44
1.1168	16.5066	558.38
1.11855	16.4833	559.32
1.12056	16.5084	560.26
1.12246	16.5297	561.2
1.12427	16.6133	562.14
1.12607	16.3883	563.08
1.12808	16.5329	564.02
1.12998	16.6287	564.96
1.13174	16.5624	565.9
1.13369	16.5417	566.84
1.1356	16.747	567.78
1.1374	16.6328	568.72
1.13921	16.6308	569.66
1.14121	16.7761	570.6
1.14312	16.6652	571.54
1.14487	16.6353	572.48
1.14683	16.7142	573.42
1.14878	16.7414	574.36
1.15059	16.6947	575.3
1.15239	16.7017	576.24
1.15439	16.7989	577.18
1.1563	16.781	578.12
1.15811	16.7785	579.06
1.16001	16.8901	580
1.16196	16.8589	580.94
1.16377	16.7828	581.88
1.16558	16.9848	582.82
1.16753	16.9292	583.76
1.16943	16.931	584.7
1.17119	16.9584	585.64
1.1731	17.1052	586.58
1.1751	16.972	587.52
1.17695	16.9955	588.46
1.17876	17.1004	589.4
1.18071	17.0944	590.34
1.18262	16.9712	591.28
1.18438	17.2328	592.22
1.18623	17.1435	593.16
1.18828	17.1241	594.1
1.19014	17.1819	595.04
1.19194	17.2869	595.98
1.1939	17.1421	596.92
1.1958	17.1778	597.86
1.19756	17.2733	598.8
1.19941	17.2735	599.74
1.20137	17.1621	600.68
1.20322	17.3093	601.62
1.20498	17.3967	602.56
1.20698	17.2799	603.5
1.20894	17.2875	604.44
1.21079	17.4073	605.38
1.2126	17.38	606.32
1.21455	17.3327	607.26
1.21641	17.4627	608.2
1.21816	17.4782	609.14
1.22012	17.5389	610.08
1.22212	17.5009	611.02
1.22393	17.5054	611.96
1.22573	17.5253	612.9
1.22773	17.4723	613.84
1.22959	17.597	614.78
1.2314	17.6802	615.72
1.23325	17.5986	616.66
1.23521	17.4376	617.6
1.23706	17.5766	618.54
1.23887	17.7191	619.48
1.24087	17.5893	620.42
1.24277	17.6218	621.36
1.24458	17.7848	622.3
1.24644	17.7454	623.24
1.24844	17.6411	624.18
1.25024	17.7368	625.12
1.25205	17.7461	626.06
1.25405	17.6843	627
1.25596	17.7196	627.94
1.25776	17.9301	628.88
1.25962	17.9282	629.82
1.26157	17.8515	630.76
1.26343	17.8885	631.7
1.26514	18.0622	632.64
1.26714	18.0234	633.58
1.26904	17.8951	634.52
1.27085	17.9591	635.46
1.27271	18.1085	636.4
1.27476	17.9973	637.34
1.27661	17.9684	638.28
1.27837	18.0696	639.22
1.28032	18.109	640.16
1.28228	18.0234	641.1
1.28408	18.0815	642.04
1.28589	18.2316	642.98
1.28789	18.1601	643.92
1.28979	18.0794	644.86
1.2916	18.1076	645.8
1.29351	18.396	646.74
1.29546	18.229	647.68
1.29727	18.149	648.62
1.29902	18.2314	649.56
1.30098	18.3628	650.5
1.30288	18.2316	651.44
1.30464	18.3119	652.38
1.30654	18.459	653.32
1.30859	18.3938	654.26
1.3104	18.3527	655.2
1.31221	18.2692	656.14
1.31421	18.4014	657.08
1.31611	18.4209	658.02
1.31787	18.3569	658.96
1.31978	18.4702	659.9
1.32178	18.5015	660.84
1.32358	18.3918	661.78
1.32534	18.4908	662.72
1.32734	18.5863	663.66
1.32925	18.505	664.6
1.33105	18.4157	665.54
1.33286	18.5846	666.48
1.33486	18.6356	667.42
1.33672	18.4968	668.36
1.33848	18.5517	669.3
1.34043	18.7212	670.24
1.34238	18.591	671.18
1.34419	18.5889	672.12
1.34604	18.5384	673.06
1.34805	18.6975	674
1.3499	18.6213	674.94
1.35171	18.7409	675.88
1.35366	18.7483	676.82
1.35562	18.6884	677.76
1.35742	18.6789	678.7
1.35923	18.7243	679.64
1.36123	18.7849	680.58
1.36309	18.7396	681.52
1.36484	18.7951	682.46
1.36675	18.8475	683.4
1.3687	18.8145	684.34
1.37051	18.7399	685.28
1.37231	18.7946	686.22
1.37437	18.9231	687.16
1.37622	18.8947	688.1
1.37803	18.8241	689.04
1.37993	18.8791	689.98
1.38188	18.9087	690.92
1.38374	18.8071	691.86
1.3855	18.8739	692.8
1.38745	18.986	693.74
1.38945	18.8749	694.68
1.39121	18.8541	695.62
1.39312	18.9618	696.56
1.39507	18.9712	697.5
1.39692	18.8854	698.44
1.39868	18.8286	699.38
1.40063	19.0114	700.32
1.40254	18.9463	701.26
1.4043	18.8576	702.2
1.4062	19.0276	703.14
1.4082	19.1136	704.08
1.41011	19.0404	705.02
1.41187	19.0468	705.96
1.41382	19.14	706.9
1.41572	19.1369	707.84
1.41753	19.0255	708.78
1.41934	19.0414	709.72
1.42139	19.1416	710.66
1.42324	18.9517	711.6
1.425	19.1297	712.54
1.42695	19.2277	713.48
1.42891	19.1412	714.42
1.43071	19.0452	715.36
1.43252	19.1234	716.3
1.43452	19.1353	717.24
1.43638	19.0954	718.18
1.43813	19.1775	719.12
1.44009	19.248	720.06
1.44209	19.1524	721
1.4439	19.1634	721.94
1.4457	19.2825	722.88
1.44771	19.26	723.82
1.44956	19.1069	724.76
1.45132	19.2853	725.7
1.45322	19.3487	726.64
1.45522	19.3319	727.58
1.45708	19.399	728.52
1.45889	19.4458	729.46
1.46084	19.3098	730.4
1.46274	19.2686	731.34
1.4645	19.4288	732.28
1.46636	19.4503	733.22
1.46836	19.3197	734.16
1.47017	19.3585	735.1
1.47197	19.4586	736.04
1.47397	19.3596	736.98
1.47593	19.4627	737.92
1.47769	19.5834	738.86
1.47954	19.452	739.8
1.48154	19.4806	740.74
1.4834	19.5667	741.68
1.48516	19.6466	742.62
1.48711	19.5366	743.56
1.48906	19.6001	744.5
1.49087	19.706	745.44
1.49272	19.6241	746.38
1.49473	19.5453	747.32
1.49658	19.6806	748.26
1.49829	19.6318	749.2
1.50024	19.6014	750.14
1.5022	19.7318	751.08
1.504	19.856	752.02
1.50576	19.7321	752.96
1.50781	19.7388	753.9
1.50972	19.6571	754.84
1.51152	19.7258	755.78
1.51343	19.7499	756.72
1.51538	19.8672	757.66
1.51719	19.7663	758.6
1.51904	19.6717	759.54
1.521	19.8803	760.48
1.5229	19.8763	761.42
1.52466	19.7059	762.36
1.52656	19.8714	763.3
1.52856	19.9187	764.24
1.53037	19.8048	765.18
1.53218	19.9477	766.12
1.53413	19.9925	767.06
1.53604	19.8407	768
1.53779	19.8275	768.94
1.53965	19.9261	769.88
1.54165	19.8859	770.82
1.54351	19.9483	771.76
1.54531	20.0402	772.7
1.54731	19.9256	773.64
1.54922	20.0481	774.58
1.55103	20.1312	775.52
1.55283	19.8868	776.46
1.55488	19.8098	777.4
1.55674	19.9543	778.34
1.5585	19.9978	779.28
1.5605	19.9191	780.22
1.5624	20.0859	781.16
1.56421	20.0732	782.1
1.56597	19.9825	783.04
1.56797	20.098	783.98
1.56982	19.9848	784.92
1.57163	19.8988	785.86
1.57358	20.0563	786.8
1.57554	20.0161	787.74
1.57734	19.9741	788.68
1.5792	20.2323	789.62
1.58115	20.1082	790.56
1.58306	19.9148	791.5
1.58477	20.1725	792.44
1.58672	20.0936	793.38
1.58872	20.0697	794.32
1.59053	20.2247	795.26
1.59238	20.1209	796.2
1.59434	20.0799	797.14
1.59624	20.2675	798.08
1.598	20.2094	799.02
1.59985	20.0567	799.96
1.60181	20.2998	800.9
1.60366	20.3395	801.84
1.60542	19.795	802.78
1.60742	20.0591	803.72
1.60938	20.1968	804.66
1.61118	19.9989	805.6
1.61304	20.1677	806.54
1.61499	20.032	807.48
1.61685	20.0561	808.42
1.61865	20.1873	809.36
1.62061	20.2499	810.3
1.62256	20.2468	811.24
1.62437	20.3153	812.18
1.62622	20.2419	813.12
1.62817	20.1995	814.06
1.63003	20.2574	815
1.63179	20.4097	815.94
1.63374	20.1969	816.88
1.63564	20.3511	817.82
1.63745	20.4475	818.76
1.63931	20.4418	819.7
1.64136	20.36	820.64
1.64321	20.4637	821.58
1.64497	20.4364	822.52
1.64692	20.3563	823.46
1.64888	20.495	824.4
1.65068	20.4042	825.34
1.65249	20.4307	826.28
1.65449	20.2231	827.22
1.6564	20.2815	828.16
1.65815	20.1926	829.1
1.66006	20.4574	830.04
1.66201	20.2362	830.98
1.66382	20.2915	831.92
1.66563	20.4289	832.86
1.66758	20.56	833.8
1.66948	20.4948	834.74
1.67129	20.5399	835.68
1.67319	20.6109	836.62
1.67515	20.4905	837.56
1.677	20.3933	838.5
1.67881	20.6712	839.44
1.68081	20.6483	840.38
1.68271	20.4495	841.32
1.68447	20.5631	842.26
1.68633	20.669	843.2
1.68833	20.5614	844.14
1.69023	20.6437	845.08
1.69199	20.6903	846.02
1.69395	20.599	846.96
1.69585	20.6035	847.9
1.69766	20.8815	848.84
1.69946	20.7127	849.78
1.70146	20.6309	850.72
1.70332	20.7033	851.66
1.70508	20.7435	852.6
1.70703	20.6317	853.54
1.70898	20.716	854.48
1.71084	20.5634	855.42
1.71265	20.5625	856.36
1.71465	20.6575	857.3
1.71655	20.718	858.24
1.71831	20.5669	859.18
1.72026	20.5877	860.12
1.72222	20.6748	861.06
1.72402	20.7941	862
1.72583	20.7364	862.94
1.72783	20.5649	863.88
1.72969	20.7334	864.82
1.73149	20.6648	865.76
1.73335	20.7655	866.7
1.7353	20.8416	867.64
1.73711	20.8639	868.58
1.73896	20.7358	869.52
1.74092	20.8287	870.46
1.74282	20.827	871.4
1.74463	20.7009	872.34
1.74653	20.9191	873.28
1.74849	20.9084	874.22
1.75034	20.798	875.16
1.7521	20.8852	876.1
1.75415	20.9343	877.04
1.75605	20.8701	877.98
1.75781	20.8735	878.92
1.75972	21.0392	879.86
1.76172	20.8916	880.8
1.76353	20.8964	881.74
1.76528	21.1346	882.68
1.76724	21.1275	883.62
1.76914	21.0458	884.56
1.77095	21.0126	885.5
1.7728	21.1609	886.44
1.7748	21.1065	887.38
1.77666	21.1002	888.32
1.77847	21.221	889.26
1.78042	21.3022	890.2
1.78232	21.1857	891.14
1.78413	21.1442	892.08
1.78594	21.225	893.02
1.78794	21.2026	893.96
1.78984	21.1301	894.9
1.79165	21.2118	895.84
1.7936	21.4072	896.78
1.79551	20.8365	897.72
1.79731	21.0226	898.66
1.79912	21.1367	899.6
1.80112	21.33	900.54
1.80293	21.241	901.48
1.80474	21.3885	902.42
1.80664	21.0828	903.36
1.80869	21.0732	904.3
1.8105	21.1751	905.24
1.8123	21.3295	906.18
1.81426	21.3528	907.12
1.81616	21.2765	908.06
1.81792	21.5006	909
1.81982	21.4907	909.94
1.82178	21.392	910.88
1.82368	21.4436	911.82
1.82544	21.6115	912.76
1.82744	21.4525	913.7
1.82935	21.4691	914.64
1.83115	21.4754	915.58
1.83296	21.5785	916.52
1.83491	21.515	917.46
1.83682	21.6438	918.4
1.83857	21.6815	919.34
1.84058	21.5975	920.28
1.84253	21.6163	921.22
1.84429	21.7125	922.16
1.84614	21.6315	923.1
1.8481	21.5479	924.04
1.85	21.6606	924.98
1.85176	21.7231	925.92
1.85371	21.6744	926.86
1.85566	21.7439	927.8
1.85747	21.4395	928.74
1.85933	21.4894	929.68
1.86128	21.4288	930.62
1.86313	21.6627	931.56
1.86489	21.7143	932.5
1.8668	21.7172	933.44
1.8688	21.4582	934.38
1.87061	21.609	935.32
1.87241	21.6337	936.26
1.87446	21.6854	937.2
1.87632	21.822	938.14
1.87808	21.6748	939.08
1.88003	21.7384	940.02
1.88198	21.8596	940.96
1.88379	21.8661	941.9
1.8856	21.7435	942.84
1.8876	21.811	943.78
1.8895	21.9534	944.72
1.89131	21.8194	945.66
1.89321	21.9164	946.6
1.89517	21.9528	947.54
1.89697	21.8683	948.48
1.89873	21.7221	949.42
1.90073	21.9797	950.36
1.90259	21.9927	951.3
1.90439	21.8532	952.24
1.90625	21.8927	953.18
1.9083	22.0273	954.12
1.91016	21.9965	955.06
1.91191	21.9948	956
1.91392	22.1213	956.94
1.91582	21.9964	957.88
1.91763	22.0009	958.82
1.91948	22.1257	959.76
1.92148	22.1425	960.7
1.92334	22.0426	961.64
1.9251	22.0824	962.58
1.92705	22.2434	963.52
1.929	22.0518	964.46
1.93081	22.1135	965.4
1.93262	21.7374	966.34
1.93457	21.8273	967.28
1.93647	21.8379	968.22
1.93818	21.9945	969.16
1.94014	22.0682	970.1
1.94209	22.0243	971.04
1.94395	22.1602	971.98
1.94575	22.2614	972.92
1.94775	22.11	973.86
1.94966	22.1894	974.8
1.95142	22.2506	975.74
1.95337	22.2949	976.68
1.95532	22.1794	977.62
1.95718	22.3121	978.56
1.95894	22.4266	979.5
1.96094	22.3108	980.44
1.96284	22.3152	981.38
1.9646	21.9592	982.32
1.96646	22.0163	983.26
1.96841	22.018	984.2
1.97026	22.2008	985.14
1.97202	22.3304	986.08
1.97402	22.2461	987.02
1.97598	22.333	987.96
1.97778	22.4842	988.9
1.97964	22.4966	989.84
1.98164	22.0998	990.78
1.98345	22.2761	991.72
1.98521	22.45	992.66
1.98721	22.3336	993.6
1.98916	22.4624	994.54
1.99097	22.5768	995.48
1.99282	22.4023	996.42
1.99482	22.3419	997.36
1.99668	22.5775	998.3
1.99839	22.6016	999.24
2.00034	22.4697	1000.18
2.00225	22.5316	1001.12
2.00405	22.5841	1002.06
2.00586	22.6652	1003
2.00791	22.5998	1003.94
2.00981	22.6665	1004.88
2.01162	22.6926	1005.82
2.01353	22.613	1006.76
2.01543	22.6536	1007.7
2.01729	22.8268	1008.64
2.01909	22.6977	1009.58
2.02104	22.6687	1010.52
2.02295	22.7862	1011.46
2.02476	22.7505	1012.4
2.02666	22.7501	1013.34
2.02861	22.8501	1014.28
2.03047	22.9445	1015.22
2.03223	22.8036	1016.16
2.03423	22.8595	1017.1
2.03608	23.0065	1018.04
2.03789	22.8527	1018.98
2.03979	22.8716	1019.92
2.0418	22.5912	1020.86
2.0436	22.5911	1021.8
2.04541	22.6493	1022.74
2.04736	22.7923	1023.68
2.04932	22.7833	1024.62
2.05107	22.8593	1025.56
2.05293	22.9579	1026.5
2.05493	22.6651	1027.44
2.05679	22.6214	1028.38
2.05859	22.7941	1029.32
2.06055	22.9468	1030.26
2.06245	22.8447	1031.2
2.06426	22.9771	1032.14
2.06606	23.1089	1033.08
2.06807	23.0718	1034.02
2.06992	22.8836	1034.96
2.07173	23.1629	1035.9
2.07368	23.1525	1036.84
2.07563	23.0513	1037.78
2.07744	23.1195	1038.72
2.07925	23.0754	1039.66
2.08125	23.1041	1040.6
2.08311	23.2629	1041.54
2.08491	23.2068	1042.48
2.08682	23.1501	1043.42
2.08882	23.1805	1044.36
2.09062	23.3298	1045.3
2.09243	23.2799	1046.24
2.09443	23.1664	1047.18
2.09629	23.3876	1048.12
2.09805	23.3516	1049.06
2.09995	23.2619	1050
2.1019	23.3652	1050.94
2.10371	23.4545	1051.88
2.10552	23.3762	1052.82
2.10752	23.4278	1053.76
2.10947	23.4939	1054.7
2.11123	23.5654	1055.64
2.11318	23.4384	1056.58
2.11509	22.9307	1057.52
2.11699	22.9518	1058.46
2.1187	23.1063	1059.4
2.1207	23.2896	1060.34
2.12266	23.4504	1061.28
2.12441	23.3619	1062.22
2.12627	23.4354	1063.16
2.12827	23.5869	1064.1
2.13013	23.5684	1065.04
2.13188	23.4567	1065.98
2.13384	23.583	1066.92
2.13574	23.5505	1067.86
2.13755	23.5776	1068.8
2.13936	23.7249	1069.74
2.14141	23.7032	1070.68
2.14326	23.6166	1071.62
2.14502	23.7252	1072.56
2.14702	23.929	1073.5
2.14897	23.8388	1074.44
2.15073	23.7661	1075.38
2.15259	23.8651	1076.32
2.15459	23.8656	1077.26
2.15645	23.8023	1078.2
2.15825	23.9521	1079.14
2.16016	23.9042	1080.08
2.16216	23.7697	1081.02
2.16392	23.9215	1081.96
2.16572	24.0054	1082.9
2.16768	23.3777	1083.84
2.16958	23.5501	1084.78
2.17134	23.6614	1085.72
2.17324	23.6453	1086.66
2.17524	23.8073	1087.6
2.1771	23.8776	1088.54
2.17891	23.8993	1089.48
2.18091	23.9366	1090.42
2.18276	24.1335	1091.36
2.18452	23.9513	1092.3
2.18638	23.9529	1093.24
2.18843	24.0409	1094.18
2.19028	24.0622	1095.12
2.19204	23.9378	1096.06
2.19409	24.1864	1097
2.19595	24.0608	1097.94
2.19775	23.9543	1098.88
2.19956	24.1323	1099.82
2.20151	24.1052	1100.76
2.20337	24.0908	1101.7
2.20518	24.1357	1102.64
2.20713	24.1831	1103.58
2.20913	24.1246	1104.52
2.21094	24.153	1105.46
2.21274	24.2798	1106.4
2.21475	24.1699	1107.34
2.2166	24.1219	1108.28
2.21836	24.2929	1109.22
2.22031	24.2573	1110.16
2.22227	24.2016	1111.1
2.22412	24.3521	1112.04
2.22588	24.3591	1112.98
2.22793	24.2926	1113.92
2.22979	24.3372	1114.86
2.23154	23.4149	1115.8
2.23345	23.2939	1116.74
2.2354	23.4405	1117.68
2.23721	23.558	1118.62
2.23901	23.4647	1119.56
2.24102	23.5135	1120.5
2.24297	23.7319	1121.44
2.24473	23.6477	1122.38
2.24663	23.698	1123.32
2.24858	23.8855	1124.26
2.25039	23.8284	1125.2
2.2522	23.8466	1126.14
2.2542	23.9615	1127.08
2.2561	23.8128	1128.02
2.25791	23.8856	1128.96
2.25981	24.0645	1129.9
2.26172	24.0132	1130.84
2.26357	24.0317	1131.78
2.26533	24.1335	1132.72
2.26729	24.1347	1133.66
2.26924	24.0879	1134.6
2.27104	24.0925	1135.54
2.2729	24.1339	1136.48
2.2749	24.0631	1137.42
2.27676	24.1746	1138.36
2.27852	24.2029	1139.3
2.28052	24.1876	1140.24
2.28242	24.2763	1141.18
2.28423	24.4033	1142.12
2.28604	24.2244	1143.06
2.28809	24.3369	1144
2.28994	24.3656	1144.94
2.29175	24.2572	1145.88
2.29365	24.3229	1146.82
2.29561	24.4439	1147.76
2.29741	24.3706	1148.7
2.29917	24.288	1149.64
2.30117	24.4153	1150.58
2.30308	24.2986	1151.52
2.30479	24.3133	1152.46
2.30674	24.4378	1153.4
2.30874	24.4809	1154.34
2.3106	24.4821	1155.28
2.31235	24.5714	1156.22
2.3144	24.5867	1157.16
2.31626	24.4757	1158.1
2.31802	24.6279	1159.04
2.31992	24.6874	1159.98
2.32192	24.5439	1160.92
2.32373	24.6773	1161.86
2.32554	24.6748	1162.8
2.32754	24.6264	1163.74
2.32939	24.6895	1164.68
2.3312	24.7981	1165.62
2.33306	24.6253	1166.56
2.33501	24.742	1167.5
2.33687	24.7025	1168.44
2.33862	23.4021	1169.38
2.34063	23.4831	1170.32
2.34253	23.62	1171.26
2.34438	23.4568	1172.2
2.34619	23.6549	1173.14
2.34824	23.7068	1174.08
2.35005	23.6246	1175.02
2.35186	23.736	1175.96
2.35381	23.8214	1176.9
2.35576	23.6649	1177.84
2.35757	23.8545	1178.78
2.35937	23.9107	1179.72
2.36143	23.7627	1180.66
2.36323	23.9266	1181.6
2.36499	24.0443	1182.54
2.36694	23.8616	1183.48
2.36885	23.8712	1184.42
2.37065	23.8907	1185.36
2.37251	23.862	1186.3
2.37451	24.0413	1187.24
2.37642	24.1571	1188.18
2.37817	24.0208	1189.12
2.38013	24.0597	1190.06
2.38203	24.1845	1191
2.38384	24.0001	1191.94
2.38564	24.1252	1192.88
2.3877	24.2594	1193.82
2.3896	24.0122	1194.76
2.39141	24.084	1195.7
2.39331	24.269	1196.64
2.39521	24.2145	1197.58
2.39707	24.2041	1198.52
2.39883	24.3259	1199.46
2.40078	24.2624	1200.4
2.40269	24.2237	1201.34
2.40449	24.3007	1202.28
2.40635	23.5721	1203.22
2.4084	23.6818	1204.16
2.41025	23.9313	1205.1
2.41201	23.8807	1206.04
2.41396	23.8132	1206.98
2.41592	24.0137	1207.92
2.41768	24.0795	1208.86
2.41953	24.0223	1209.8
2.42153	24.1196	1210.74
2.42339	24.1504	1211.68
2.4252	24.0145	1212.62
2.42715	24.2245	1213.56
2.42905	24.229	1214.5
2.43086	24.1394	1215.44
2.43267	24.197	1216.38
2.43467	24.4098	1217.32
2.43652	24.2586	1218.26
2.43833	24.3321	1219.2
2.44028	24.4347	1220.14
2.44224	24.3931	1221.08
2.44404	24.3766	1222.02
2.44585	24.4778	1222.96
2.44785	24.4099	1223.9
2.44971	24.3879	1224.84
2.45151	24.647	1225.78
2.45342	24.561	1226.72
2.45542	24.1299	1227.66
2.45723	24.4083	1228.6
2.45903	24.3187	1229.54
2.46104	24.4213	1230.48
2.46289	24.5667	1231.42
2.46465	24.6952	1232.36
2.4665	24.6369	1233.3
2.46851	24.6944	1234.24
2.47036	24.6396	1235.18
2.47212	24.5638	1236.12
2.47417	24.7136	1237.06
2.47607	24.7029	1238
2.47783	24.6108	1238.94
2.47974	24.7701	1239.88
2.48169	24.6861	1240.82
2.48354	24.6759	1241.76
2.4853	24.8055	1242.7
2.4873	24.7917	1243.64
2.48926	24.7075	1244.58
2.49106	24.8642	1245.52
2.49292	24.8495	1246.46
2.49487	24.759	1247.4
2.49673	24.9473	1248.34
2.49849	24.8894	1249.28
2.50044	24.7795	1250.22
2.50234	25.0186	1251.16
2.50415	24.984	1252.1
2.50596	24.8543	1253.04
2.50801	25.0787	1253.98
2.50986	25.0325	1254.92
2.51167	24.8927	1255.86
2.51362	25.0042	1256.8
2.51553	25.0739	1257.74
2.51738	24.9839	1258.68
2.51919	25.0564	1259.62
2.52119	25.242	1260.56
2.52305	25.0839	1261.5
2.52485	25.1385	1262.44
2.52671	25.1868	1263.38
2.52871	25.1012	1264.32
2.53052	25.1011	1265.26
2.53232	25.2926	1266.2
2.53428	24.8535	1267.14
2.53618	24.7992	1268.08
2.53794	25.033	1269.02
2.53984	25.0244	1269.96
2.54185	25.1182	1270.9
2.54365	25.2929	1271.84
2.54546	25.2548	1272.78
2.54746	25.3368	1273.72
2.54937	25.3354	1274.66
2.55117	25.2348	1275.6
2.55303	25.1792	1276.54
2.55503	25.4183	1277.48
2.55688	25.3587	1278.42
2.55869	25.2309	1279.36
2.56064	25.3498	1280.3
2.56255	25.3861	1281.24
2.56431	25.377	1282.18
2.56616	25.3955	1283.12
2.56816	25.4171	1284.06
2.57002	25.3387	1285
2.57178	25.466	1285.94
2.57373	25.5277	1286.88
2.57568	25.4359	1287.82
2.57754	25.4804	1288.76
2.57935	25.5168	1289.7
2.5813	25.4137	1290.64
2.58315	25.5371	1291.58
2.58496	25.5017	1292.52
2.58687	25.4214	1293.46
2.58887	25.5597	1294.4
2.59067	25.649	1295.34
2.59253	25.5212	1296.28
2.59453	25.5915	1297.22
2.59639	25.5853	1298.16
2.59814	25.5029	1299.1
2.60005	25.6035	1300.04
2.602	25.665	1300.98
2.60381	25.5017	1301.92
2.60562	25.5818	1302.86
2.60762	25.7587	1303.8
2.60957	25.2648	1304.74
2.61133	25.3922	1305.68
2.61323	25.5997	1306.62
2.61519	25.5646	1307.56
2.61704	25.4571	1308.5
2.6188	25.7827	1309.44
2.6208	25.6232	1310.38
2.62271	25.5065	1311.32
2.62451	25.6654	1312.26
2.62637	25.6464	1313.2
2.62837	25.6567	1314.14
2.63022	25.6792	1315.08
2.63198	25.6955	1316.02
2.63394	25.6071	1316.96
2.63584	25.7	1317.9
2.63765	25.8591	1318.84
2.63945	25.6364	1319.78
2.6415	25.698	1320.72
2.64336	25.869	1321.66
2.64512	25.8319	1322.6
2.64712	25.8484	1323.54
2.64902	25.8866	1324.48
2.65083	25.7202	1325.42
2.65264	25.7719	1326.36
2.65464	25.9372	1327.3
2.65654	25.8385	1328.24
2.6583	25.8262	1329.18
2.66025	25.9029	1330.12
2.66221	25.9146	1331.06
2.66396	25.8119	1332
2.66577	25.8912	1332.94
2.66777	25.8862	1333.88
2.66968	25.8395	1334.82
2.67144	25.8854	1335.76
2.67339	26.0972	1336.7
2.67539	25.9343	1337.64
2.67715	25.9039	1338.58
2.67895	26.0638	1339.52
2.68096	25.9767	1340.46
2.68286	25.9531	1341.4
2.68462	26.1352	1342.34
2.68652	26.1088	1343.28
2.68853	26.0422	1344.22
2.69033	26.1408	1345.16
2.69214	26.1029	1346.1
2.69414	25.9181	1347.04
2.69604	26.0778	1347.98
2.6978	26.0636	1348.92
2.69966	26.0473	1349.86
2.70161	26.1538	1350.8
2.70347	26.2087	1351.74
2.70522	25.9318	1352.68
2.70718	25.929	1353.62
2.70918	25.9362	1354.56
2.71099	26.083	1355.5
2.71284	25.955	1356.44
2.71484	26.1066	1357.38
2.71665	26.0495	1358.32
2.71846	25.9593	1359.26
2.72041	26.0798	1360.2
2.72236	26.1138	1361.14
2.72412	26.0433	1362.08
2.72598	26.0995	1363.02
2.72798	26.1116	1363.96
2.72983	26.1118	1364.9
2.73164	26.0005	1365.84
2.73354	26.1505	1366.78
2.7355	26.1196	1367.72
2.73726	26.0735	1368.66
2.73911	26.1547	1369.6
2.74106	26.2292	1370.54
2.74297	26.0293	1371.48
2.74478	26.217	1372.42
2.74668	26.2573	1373.36
2.74868	26.1985	1374.3
2.75049	26.2077	1375.24
2.75229	26.3324	1376.18
2.7543	26.2175	1377.12
2.7562	26.2954	1378.06
2.75796	26.3703	1379
2.75986	26.2631	1379.94
2.76187	26.2813	1380.88
2.76367	26.5196	1381.82
2.76543	26.3263	1382.76
2.76738	26.3696	1383.7
2.76929	26.4128	1384.64
2.77109	26.3201	1385.58
2.77109	26.3188	1385.6