File: Data/Thesis_Samples_Data/Flexural_Cast_1/DAQ- Crosshead, … - (Timed).txt
File Path: C:\Users\Lab User\Desktop\Will\Thesis Tests\Test Run 7 04-8-22 15 16 20 PM\DAQ- Crosshead, … - (Timed).txt
Test: MTS EM Flexure (3-Point Bend) - Will 1
Test Run: Test Run 7
Date: 4/8/2022 3:13:28 PM

Crosshead 	Load 	Time
mm	N	sec
0	2.36878	0.02
4.88281e-05	2.31668	0.06
4.88281e-05	2.51083	0.1
9.76562e-05	2.36586	0.14
0.000146484	2.47386	0.18
0.000146484	2.37989	0.22
0.000195312	2.42146	0.26
0.000292969	2.63023	0.3
0.000341797	2.51786	0.34
0.000390625	2.68276	0.38
0.000488281	2.71087	0.42
0.000537109	2.68675	0.46
0.000585938	2.94616	0.5
0.000683594	2.87411	0.54
0.00078125	2.97263	0.58
0.000878906	3.04503	0.62
0.000927734	3.10561	0.66
0.00102539	3.3288	0.7
0.00112305	3.31467	0.74
0.0012207	3.50258	0.78
0.00131836	3.69235	0.82
0.00141602	3.65939	0.86
0.00151367	3.99444	0.9
0.00161133	3.93633	0.94
0.00170898	4.08953	0.98
0.00180664	4.18143	1.02
0.0019043	4.25158	1.06
0.00200195	4.4691	1.1
0.00205078	4.43032	1.14
0.00214844	4.62704	1.18
0.00224609	4.77692	1.22
0.00234375	4.8066	1.26
0.00244141	5.02583	1.3
0.00249023	5.05599	1.34
0.00258789	5.17369	1.38
0.00268555	5.35434	1.42
0.0027832	5.38032	1.46
0.00288086	5.59229	1.5
0.00297852	5.65717	1.54
0.00302734	5.85015	1.58
0.003125	6.00587	1.62
0.00322266	5.86929	1.66
0.00332031	6.19555	1.7
0.00341797	6.24426	1.74
0.0034668	6.33919	1.78
0.00356445	6.56201	1.82
0.00366211	6.47329	1.86
0.00375977	6.81848	1.9
0.00385742	6.84383	1.94
0.00390625	6.97957	1.98
0.00400391	7.15052	2.02
0.00410156	7.17469	2.06
0.00419922	7.42459	2.1
0.00429687	7.48299	2.14
0.0043457	7.54663	2.18
0.00444336	7.83139	2.22
0.00454102	7.72234	2.26
0.00458984	7.94832	2.3
0.0046875	7.99428	2.34
0.00478516	8.07754	2.38
0.00483398	8.29009	2.42
0.00493164	8.31483	2.46
0.0050293	8.40012	2.5
0.00507813	8.58053	2.54
0.00517578	8.61259	2.58
0.00527344	8.91549	2.62
0.00537109	8.81376	2.66
0.00541992	9.0963	2.7
0.00551758	9.17816	2.74
0.00556641	9.19962	2.78
0.00566406	9.43722	2.82
0.00576172	9.47955	2.86
0.00581055	9.60557	2.9
0.0059082	9.7847	2.94
0.00600586	9.74938	2.98
0.00605469	10.0036	3.02
0.00615234	10.0385	3.06
0.00625	10.1956	3.1
0.00629883	10.3975	3.14
0.00639648	10.3812	3.18
0.00644531	10.666	3.22
0.00654297	10.6521	3.26
0.00664063	10.7621	3.3
0.00668945	10.9239	3.34
0.00678711	10.868	3.38
0.00683594	11.1566	3.42
0.00693359	11.1741	3.46
0.00698242	11.2577	3.5
0.00708008	11.5053	3.54
0.00717773	11.4508	3.58
0.00722656	11.7245	3.62
0.00732422	11.7654	3.66
0.00737305	11.8983	3.7
0.0074707	12.1214	3.74
0.00751953	12.0778	3.78
0.00761719	12.293	3.82
0.00766602	12.3117	3.86
0.00776367	12.4254	3.9
0.00786133	12.7072	3.94
0.00791016	12.651	3.98
0.00800781	12.8612	4.02
0.00805664	12.967	4.06
0.0081543	13.0222	4.1
0.00820312	13.2918	4.14
0.00830078	13.2033	4.18
0.00834961	13.4629	4.22
0.00844727	13.5462	4.26
0.00854492	13.5453	4.3
0.00864258	13.9365	4.34
0.00869141	13.8499	4.38
0.00874023	14.0583	4.42
0.00883789	14.1386	4.46
0.00893555	14.2576	4.5
0.0090332	14.419	4.54
0.00913086	14.5277	4.58
0.00917969	14.673	4.62
0.00927734	14.8823	4.66
0.009375	14.8132	4.7
0.00942383	15.1927	4.74
0.00952148	15.0952	4.78
0.00961914	15.3148	4.82
0.0097168	15.4163	4.86
0.00981445	15.4607	4.9
0.00986328	15.8331	4.94
0.00996094	15.8335	4.98
0.0100586	15.9365	5.02
0.0101563	16.2279	5.06
0.0102051	16.2076	5.1
0.0103027	16.555	5.14
0.0104004	16.4961	5.18
0.010498	16.7904	5.22
0.0105469	16.8812	5.26
0.0106445	16.9372	5.3
0.0107422	17.1619	5.34
0.010791	17.2196	5.38
0.0108887	17.3296	5.42
0.0109863	17.519	5.46
0.0110352	17.4418	5.5
0.0111328	17.7913	5.54
0.0112305	17.7694	5.58
0.0113281	17.9789	5.62
0.011377	18.1989	5.66
0.0114746	18.1164	5.7
0.0115723	18.3842	5.74
0.0116211	18.4124	5.78
0.0117188	18.7427	5.82
0.0118164	18.7479	5.86
0.0119141	18.8105	5.9
0.0119629	19.0509	5.94
0.0120605	19.0683	5.98
0.0121094	19.263	6.02
0.012207	19.4665	6.06
0.0123047	19.4513	6.1
0.0123535	19.7098	6.14
0.0124512	19.773	6.18
0.0125	19.8763	6.22
0.0125977	20.1227	6.26
0.0126465	20.0369	6.3
0.0127441	20.3008	6.34
0.0128418	20.4076	6.38
0.0128906	20.4774	6.42
0.0129883	20.7585	6.46
0.0130859	20.7309	6.5
0.0131348	20.9313	6.54
0.0132324	20.9869	6.58
0.0132813	21.0913	6.62
0.0133789	21.3609	6.66
0.0134277	21.4033	6.7
0.0135254	21.5209	6.74
0.0135742	21.624	6.78
0.0136719	21.6665	6.82
0.0137207	21.8987	6.86
0.0138184	21.9612	6.9
0.0138672	22.1452	6.94
0.0139648	22.3132	6.98
0.0140625	22.2716	7.02
0.0141113	22.6023	7.06
0.014209	22.5801	7.1
0.0142578	22.8084	7.14
0.0143555	22.9111	7.18
0.0144043	22.9125	7.22
0.0144531	23.1162	7.26
0.0145508	23.2437	7.3
0.0146484	23.3297	7.34
0.0146973	23.5368	7.38
0.0147949	23.4919	7.42
0.0148438	23.7934	7.46
0.0149414	23.7875	7.5
0.0149902	23.8957	7.54
0.0150879	24.1209	7.58
0.0151855	24.0419	7.62
0.0152344	24.3609	7.66
0.015332	24.4671	7.7
0.0153809	24.5666	7.74
0.0154785	24.7584	7.78
0.0155762	24.7123	7.82
0.015625	25.0003	7.86
0.0157227	25.057	7.9
0.0157715	25.267	7.94
0.0158691	25.4897	7.98
0.0159668	25.4433	8.02
0.0160156	25.7005	8.06
0.0161133	25.8548	8.1
0.0162109	25.9034	8.14
0.0163086	26.247	8.18
0.0164062	26.1168	8.22
0.0164551	26.4647	8.26
0.0165527	26.4487	8.3
0.0166504	26.6175	8.34
0.016748	26.8747	8.38
0.0167969	26.9907	8.42
0.0168945	27.1378	8.46
0.0169922	27.3184	8.5
0.0170898	27.3856	8.54
0.0171387	27.6101	8.58
0.0172363	27.6184	8.62
0.0172852	27.878	8.66
0.0173828	27.9583	8.7
0.0174805	28.079	8.74
0.0175781	28.3732	8.78
0.017627	28.3256	8.82
0.0177246	28.572	8.86
0.0178223	28.6538	8.9
0.0179199	28.7109	8.94
0.0179688	29.0612	8.98
0.0180664	29.0537	9.02
0.0181152	29.2199	9.06
0.0182129	29.3828	9.1
0.0183105	29.4265	9.14
0.0183594	29.7947	9.18
0.018457	29.7539	9.22
0.0185547	29.8563	9.26
0.0186523	30.1514	9.3
0.0187012	30.208	9.34
0.0187988	30.3758	9.38
0.0188477	30.462	9.42
0.0189453	30.6152	9.46
0.0189941	30.8252	9.5
0.0190918	30.817	9.54
0.0191895	31.1362	9.58
0.0192383	31.1123	9.62
0.0193359	31.3172	9.66
0.0194336	31.4745	9.7
0.0194824	31.4373	9.74
0.0195312	31.6833	9.78
0.0196289	31.9119	9.82
0.0197266	31.9197	9.86
0.0197754	32.2845	9.9
0.019873	32.1337	9.94
0.0199219	32.5293	9.98
0.0200195	32.5352	10.02
0.0201172	32.729	10.06
0.020166	32.968	10.1
0.0202637	32.9471	10.14
0.0203125	33.2146	10.18
0.0204102	33.3137	10.22
0.020459	33.3415	10.26
0.0205566	33.6081	10.3
0.0206055	33.539	10.34
0.0207031	33.8741	10.38
0.0208008	33.9541	10.42
0.0208496	34.0141	10.46
0.0208984	34.3137	10.5
0.0209961	34.2584	10.54
0.0210449	34.497	10.58
0.0211426	34.6265	10.62
0.0211914	34.6815	10.66
0.0212891	34.9791	10.7
0.0213867	35.0313	10.74
0.0214355	35.218	10.78
0.0215332	35.4347	10.82
0.021582	35.5022	10.86
0.0216797	35.7485	10.9
0.0217773	35.8063	10.94
0.0218262	35.9392	10.98
0.0219238	36.1084	11.02
0.0219727	36.175	11.06
0.0220703	36.3751	11.1
0.022168	36.5618	11.14
0.0222168	36.7041	11.18
0.0223145	36.9121	11.22
0.0223633	36.9093	11.26
0.0224609	37.2317	11.3
0.0225586	37.276	11.34
0.0226562	37.557	11.38
0.0227539	37.6537	11.42
0.0228027	37.7789	11.46
0.0229004	37.9417	11.5
0.022998	38.1373	11.54
0.0230957	38.2661	11.58
0.0231445	38.5696	11.62
0.0232422	38.6454	11.66
0.0233398	38.976	11.7
0.0234375	39.043	11.74
0.0234863	39.1921	11.78
0.023584	39.4058	11.82
0.0236816	39.5074	11.86
0.0237793	39.8012	11.9
0.023877	39.9171	11.94
0.0239746	40.0313	11.98
0.0240234	40.4334	12.02
0.0241211	40.3269	12.06
0.0242188	40.5998	12.1
0.0243164	40.7715	12.14
0.0244141	40.896	12.18
0.0244629	41.1772	12.22
0.0245605	41.2613	12.26
0.0246582	41.4748	12.3
0.0247559	41.8019	12.34
0.0248535	41.8597	12.38
0.0249023	42.0484	12.42
0.0249512	42.0345	12.46
0.0250488	42.3032	12.5
0.0251465	42.3649	12.54
0.0251953	42.4464	12.58
0.025293	42.8617	12.62
0.0253906	42.8316	12.66
0.0254883	43.1614	12.7
0.0255371	43.3442	12.74
0.0256348	43.3463	12.78
0.0256836	43.6379	12.82
0.0257812	43.6326	12.86
0.0258789	43.8169	12.9
0.0259277	44.0731	12.94
0.0260254	44.0868	12.98
0.026123	44.4779	13.02
0.0261719	44.5198	13.06
0.0262695	44.8101	13.1
0.0263672	44.8942	13.14
0.026416	44.8772	13.18
0.0265137	45.2598	13.22
0.0265625	45.3273	13.26
0.0266602	45.4489	13.3
0.026709	45.6488	13.34
0.0268066	45.6766	13.38
0.0269043	45.9717	13.42
0.0269531	46.0648	13.46
0.0270508	46.269	13.5
0.0270996	46.5104	13.54
0.0271973	46.397	13.58
0.0272461	46.7784	13.62
0.0273438	46.7868	13.66
0.0273926	47.0208	13.7
0.0274902	47.2486	13.74
0.0275391	47.2168	13.78
0.0276367	47.5214	13.82
0.0276855	47.642	13.86
0.0277832	47.7783	13.9
0.0278809	48.0666	13.94
0.0279297	48.0211	13.98
0.0280273	48.3038	14.02
0.0280762	48.4578	14.06
0.0281738	48.6122	14.1
0.0282227	48.9288	14.14
0.0283203	48.8999	14.18
0.0283691	49.1419	14.22
0.0284668	49.2764	14.26
0.0285156	49.4491	14.3
0.0286133	49.804	14.34
0.0287109	49.6573	14.38
0.0287598	50.0271	14.42
0.0288574	50.2238	14.46
0.0289551	50.2773	14.5
0.0290527	50.6654	14.54
0.0291016	50.6527	14.58
0.0291992	50.9139	14.62
0.0292969	51.1126	14.66
0.0293457	51.205	14.7
0.0294434	51.4857	14.74
0.0294922	51.597	14.78
0.0295898	51.8295	14.82
0.0296875	52.0736	14.86
0.0297852	52.1292	14.9
0.029834	52.469	14.94
0.0299316	52.5849	14.98
0.0300293	52.7723	15.02
0.030127	53.0539	15.06
0.0302246	53.1895	15.1
0.0303223	53.5306	15.14
0.0303711	53.5597	15.18
0.0304687	53.7776	15.22
0.0305664	53.9549	15.26
0.0306152	54.093	15.3
0.0307129	54.4219	15.34
0.0308105	54.5847	15.38
0.0309082	54.6836	15.42
0.030957	54.9325	15.46
0.0310547	54.9343	15.5
0.0311035	55.3582	15.54
0.0312012	55.3173	15.58
0.0312988	55.5102	15.62
0.0313965	55.9015	15.66
0.0314453	55.9052	15.7
0.031543	56.176	15.74
0.0315918	56.2798	15.78
0.0316895	56.4743	15.82
0.0317871	56.7474	15.86
0.0318848	56.8396	15.9
0.0319336	57.1451	15.94
0.0320313	57.1861	15.98
0.0321289	57.4381	16.02
0.0321777	57.6746	16.06
0.0322754	57.6421	16.1
0.0323242	58.0366	16.14
0.0324219	58.1695	16.18
0.0325195	58.2531	16.22
0.0325684	58.5729	16.26
0.032666	58.5011	16.3
0.0327148	58.8698	16.34
0.0328125	59.0084	16.38
0.0328613	59.3497	16.42
0.032959	59.3631	16.46
0.0330566	59.4421	16.5
0.0331055	59.745	16.54
0.0332031	59.8539	16.58
0.033252	60.0127	16.62
0.0333496	60.2935	16.66
0.0334473	60.3889	16.7
0.0334961	60.6113	16.74
0.0335449	60.7148	16.78
0.0336426	61.0046	16.82
0.0337402	61.3581	16.86
0.0337891	61.3297	16.9
0.0338867	61.5668	16.94
0.0339355	61.6715	16.98
0.0340332	61.7817	17.02
0.034082	62.1236	17.06
0.0341797	62.1668	17.1
0.0342285	62.352	17.14
0.0343262	62.5771	17.18
0.034375	62.6223	17.22
0.0344238	62.9755	17.26
0.0345215	63.0242	17.3
0.0346191	63.2619	17.34
0.0347168	63.4757	17.38
0.0347656	63.5824	17.42
0.0348145	63.8892	17.46
0.0349121	63.9852	17.5
0.0350098	64.1047	17.54
0.0350586	64.4042	17.58
0.0351562	64.3717	17.62
0.0352051	64.8857	17.66
0.0353027	64.889	17.7
0.0354004	65.1745	17.74
0.035498	65.4183	17.78
0.0355469	65.4343	17.82
0.0356445	65.7849	17.86
0.0356934	65.845	17.9
0.035791	66.1044	17.94
0.0358887	66.4461	17.98
0.0359863	66.4831	18.02
0.0360352	66.8503	18.06
0.0361328	66.9496	18.1
0.0362305	67.2023	18.14
0.0363281	67.5101	18.18
0.036377	67.568	18.22
0.0364746	67.7982	18.26
0.0365234	68.0623	18.3
0.0366211	68.1979	18.34
0.0367187	68.5975	18.38
0.0368164	68.6692	18.42
0.0369141	68.9935	18.46
0.0369629	69.1689	18.5
0.0370605	69.3052	18.54
0.0371582	69.617	18.58
0.0372559	69.6957	18.62
0.0373047	70.0897	18.66
0.0374023	70.2193	18.7
0.0375	70.4877	18.74
0.0375977	70.877	18.78
0.0376953	70.8813	18.82
0.0377441	71.2036	18.86
0.0378418	71.311	18.9
0.0378906	71.3938	18.94
0.0379883	71.7816	18.98
0.0380859	71.8273	19.02
0.0381836	72.2437	19.06
0.0382324	72.3309	19.1
0.0383301	72.6028	19.14
0.0384277	72.9431	19.18
0.0384766	73.0491	19.22
0.0385742	73.1656	19.26
0.038623	73.3985	19.3
0.0387207	73.4339	19.34
0.0388184	73.8515	19.38
0.038916	74.0187	19.42
0.0389648	74.295	19.46
0.0390625	74.5222	19.5
0.0391113	74.6561	19.54
0.039209	74.949	19.58
0.0393066	75.1868	19.62
0.0394043	75.4081	19.66
0.0394531	75.6741	19.7
0.0395508	75.7447	19.74
0.0395996	76.1127	19.78
0.0396973	76.1598	19.82
0.0397949	76.4055	19.86
0.0398438	76.6418	19.9
0.0399414	76.7431	19.94
0.0399902	77.1708	19.98
0.0400879	77.2235	20.02
0.0401367	77.4128	20.06
0.0402344	77.7624	20.1
0.0402832	77.7355	20.14
0.0403809	78.1507	20.18
0.0404785	78.2122	20.22
0.0405273	78.4576	20.26
0.040625	78.7603	20.3
0.0406738	78.9302	20.34
0.0407715	79.1612	20.38
0.0408203	79.246	20.42
0.040918	79.4253	20.46
0.0410156	79.835	20.5
0.0410645	79.8349	20.54
0.0411133	80.09	20.58
0.0412109	80.2963	20.62
0.0412598	80.4758	20.66
0.0413574	80.6868	20.7
0.0414062	80.7494	20.74
0.0415039	81.0505	20.78
0.0416016	81.2253	20.82
0.0416504	81.5385	20.86
0.041748	81.804	20.9
0.0417969	81.8828	20.94
0.0418945	82.3385	20.98
0.0419922	82.4651	21.02
0.042041	82.5945	21.06
0.0421387	82.9831	21.1
0.0421875	82.9663	21.14
0.0422852	83.2507	21.18
0.0423828	83.4621	21.22
0.0424316	83.7481	21.26
0.0425293	84.123	21.3
0.042627	84.2448	21.34
0.0427246	84.4563	21.38
0.0428223	84.8443	21.42
0.0428711	85.087	21.46
0.0429687	85.4657	21.5
0.0430664	85.5001	21.54
0.0431152	85.9411	21.58
0.0432129	86.168	21.62
0.0433105	86.2977	21.66
0.0434082	86.8184	21.7
0.0435059	86.9985	21.74
0.0436035	87.256	21.78
0.0437012	87.5351	21.82
0.04375	87.5928	21.86
0.0438477	87.9926	21.9
0.0439453	88.0877	21.94
0.0439941	88.3364	21.98
0.0440918	88.6409	22.02
0.0441895	88.8202	22.06
0.0442383	89.2181	22.1
0.0443359	89.27	22.14
0.0444336	89.4966	22.18
0.0445313	89.8323	22.22
0.0445801	89.9129	22.26
0.0446777	90.277	22.3
0.0447754	90.4489	22.34
0.0448242	90.6994	22.38
0.0449219	91.0375	22.42
0.0449707	91.0899	22.46
0.0450684	91.4014	22.5
0.045166	91.6721	22.54
0.0452148	91.8687	22.58
0.0453125	92.1326	22.62
0.0454102	92.2102	22.66
0.0455078	92.6654	22.7
0.0455566	92.8493	22.74
0.0456543	93.0207	22.78
0.0457031	93.4605	22.82
0.0458008	93.5102	22.86
0.0458984	93.8944	22.9
0.0459473	94.0682	22.94
0.0460449	94.3748	22.98
0.0460938	94.6917	23.02
0.0461914	94.8077	23.06
0.0462891	94.9875	23.1
0.0463379	95.2722	23.14
0.0464355	95.36	23.18
0.0464844	95.8537	23.22
0.046582	95.8574	23.26
0.0466797	96.3283	23.3
0.0467285	96.465	23.34
0.0468262	96.7073	23.38
0.046875	97.0625	23.42
0.0469727	97.1553	23.46
0.0470215	97.3873	23.5
0.0471191	97.611	23.54
0.047168	97.7617	23.58
0.0472656	98.2098	23.62
0.0473145	98.1548	23.66
0.0474121	98.5146	23.7
0.0474609	98.7662	23.74
0.0475586	98.8805	23.78
0.0476074	99.3925	23.82
0.0477051	99.386	23.86
0.0477539	99.683	23.9
0.0478516	99.8848	23.94
0.0479004	100.106	23.98
0.047998	100.478	24.02
0.0480469	100.633	24.06
0.0481445	100.889	24.1
0.0481934	101.068	24.14
0.048291	101.281	24.18
0.0483398	101.717	24.22
0.0484375	101.771	24.26
0.0485352	102.058	24.3
0.048584	102.401	24.34
0.0486816	102.54	24.38
0.0487793	102.974	24.42
0.0488281	103.119	24.46
0.0489258	103.339	24.5
0.0489746	103.712	24.54
0.0490723	103.771	24.58
0.0491699	104.254	24.62
0.0492676	104.395	24.66
0.0493164	104.776	24.7
0.0494141	105.022	24.74
0.0494629	105.12	24.78
0.0495605	105.569	24.82
0.0496582	105.749	24.86
0.0497559	105.994	24.9
0.0498047	106.397	24.94
0.0499023	106.58	24.98
0.05	106.957	25.02
0.0500977	107.214	25.06
0.0501953	107.57	25.1
0.0502441	107.807	25.14
0.0503418	107.984	25.18
0.0504395	108.487	25.22
0.0504883	108.745	25.26
0.0505859	108.996	25.3
0.0506836	109.399	25.34
0.0507813	109.561	25.38
0.0508301	109.886	25.42
0.0509277	109.984	25.46
0.0510254	110.348	25.5
0.0510742	110.72	25.54
0.0511719	110.777	25.58
0.0512695	111.214	25.62
0.0513184	111.506	25.66
0.051416	111.652	25.7
0.0515137	112.085	25.74
0.0515625	112.225	25.78
0.0516602	112.643	25.82
0.051709	112.78	25.86
0.0518066	113.131	25.9
0.0519043	113.56	25.94
0.052002	113.651	25.98
0.0520508	114.117	26.02
0.0521484	114.25	26.06
0.0522461	114.545	26.1
0.0522949	114.984	26.14
0.0523926	115.173	26.18
0.0524414	115.44	26.22
0.0525391	115.835	26.26
0.0526367	115.974	26.3
0.0526855	116.453	26.34
0.0527832	116.583	26.38
0.052832	116.894	26.42
0.0529297	117.096	26.46
0.0530273	117.444	26.5
0.0530762	117.745	26.54
0.0531738	117.875	26.58
0.0532227	118.254	26.62
0.0533203	118.625	26.66
0.0533691	118.75	26.7
0.0534668	119.252	26.74
0.0535645	119.408	26.78
0.0536133	119.767	26.82
0.0537109	120.002	26.86
0.0538086	120.362	26.9
0.0538574	120.833	26.94
0.0539062	120.796	26.98
0.0540039	121.154	27.02
0.0540527	121.558	27.06
0.0541504	121.742	27.1
0.054248	122.195	27.14
0.0542969	122.39	27.18
0.0543457	122.644	27.22
0.0544434	123.014	27.26
0.0544922	123.234	27.3
0.0545898	123.686	27.34
0.0546875	123.967	27.38
0.0547363	124.181	27.42
0.054834	124.564	27.46
0.0548828	124.826	27.5
0.0549805	125.307	27.54
0.0550781	125.559	27.58
0.055127	125.932	27.62
0.0552246	126.308	27.66
0.0552734	126.486	27.7
0.0553711	126.983	27.74
0.0554688	127.236	27.78
0.0555176	127.555	27.82
0.0556152	128.176	27.86
0.0557129	128.398	27.9
0.0558105	128.814	27.94
0.0558594	129.133	27.98
0.055957	129.523	28.02
0.0560547	129.873	28.06
0.0561035	130.147	28.1
0.0562012	130.6	28.14
0.0562988	130.829	28.18
0.0563965	131.28	28.22
0.0564941	131.882	28.26
0.056543	132.127	28.3
0.0566406	132.647	28.34
0.0567383	132.956	28.38
0.0568359	133.393	28.42
0.0569336	134.025	28.46
0.0570313	134.308	28.5
0.0570801	134.755	28.54
0.0571777	134.948	28.58
0.0572266	135.407	28.62
0.0573242	135.964	28.66
0.0574219	136.281	28.7
0.0575195	136.748	28.74
0.0576172	137.248	28.78
0.057666	137.592	28.82
0.0577637	138.155	28.86
0.0578613	138.401	28.9
0.0579102	138.781	28.94
0.0580078	139.156	28.98
0.0581055	139.61	29.02
0.0581543	140.088	29.06
0.058252	140.401	29.1
0.0583496	140.893	29.14
0.0584473	141.485	29.18
0.0584961	141.754	29.22
0.0585937	142.3	29.26
0.0586914	142.506	29.3
0.0587402	143.119	29.34
0.0588379	143.336	29.38
0.0588867	143.699	29.42
0.0589844	144.168	29.46
0.059082	144.523	29.5
0.0591309	145.131	29.54
0.0592285	145.544	29.58
0.0592773	145.808	29.62
0.059375	146.326	29.66
0.0594727	146.661	29.7
0.0595215	147.096	29.74
0.0596191	147.637	29.78
0.0597168	148.036	29.82
0.0597656	148.649	29.86
0.0598633	148.775	29.9
0.0599121	149.182	29.94
0.0600098	149.709	29.98
0.0600586	149.993	30.02
0.0601562	150.534	30.06
0.0602051	150.813	30.1
0.0603027	151.259	30.14
0.0604004	151.861	30.18
0.0604492	152.124	30.22
0.0605469	152.539	30.26
0.0605957	152.87	30.3
0.0606934	153.35	30.34
0.0607422	153.909	30.38
0.0608398	154.204	30.42
0.0608887	154.681	30.46
0.0609375	154.85	30.5
0.0610352	155.297	30.54
0.0611328	155.849	30.58
0.0611816	156.125	30.62
0.0612793	156.619	30.66
0.0613281	157.095	30.7
0.0614258	157.752	30.74
0.0615234	158.127	30.78
0.0615723	158.44	30.82
0.0616211	158.829	30.86
0.0617187	159.313	30.9
0.0618164	159.703	30.94
0.0618652	160.473	30.98
0.0619629	160.824	31.02
0.0620605	161.277	31.06
0.0621094	161.737	31.1
0.062207	162.039	31.14
0.0623047	162.718	31.18
0.0623535	163.115	31.22
0.0624512	163.49	31.26
0.0625	164.05	31.3
0.0625977	164.444	31.34
0.0626953	164.973	31.38
0.0627441	165.404	31.42
0.0628418	166.031	31.46
0.0629395	166.618	31.5
0.0630371	167.096	31.54
0.0631348	167.784	31.58
0.0632324	168.159	31.62
0.0632813	168.695	31.66
0.0633789	169.061	31.7
0.0634766	169.688	31.74
0.0635742	170.255	31.78
0.0636719	170.817	31.82
0.0637207	171.357	31.86
0.0638184	171.736	31.9
0.0638672	171.992	31.94
0.0639648	172.714	31.98
0.0640625	173.016	32.02
0.0641113	173.532	32.06
0.064209	174.132	32.1
0.0643066	174.648	32.14
0.0644043	175.326	32.18
0.064502	175.581	32.22
0.0645508	176.166	32.26
0.0646484	176.719	32.3
0.0647461	176.983	32.34
0.0647949	177.587	32.38
0.0648926	177.909	32.42
0.0649414	178.378	32.46
0.0650391	178.74	32.5
0.0651367	179.037	32.54
0.0651855	179.684	32.58
0.0652832	180.066	32.62
0.0653809	180.457	32.66
0.0654297	181.088	32.7
0.0655273	181.303	32.74
0.065625	181.913	32.78
0.0656738	182.281	32.82
0.0657715	182.665	32.86
0.0658691	183.069	32.9
0.065918	183.363	32.94
0.0660156	183.873	32.98
0.0661133	184.255	33.02
0.0661621	184.488	33.06
0.0662598	184.827	33.1
0.0663086	184.688	33.14
0.0664063	184.795	33.18
0.0665039	185.042	33.22
0.0665527	185.067	33.26
0.0666504	185.078	33.3
0.0666992	184.72	33.34
0.0667969	184.934	33.38
0.0668457	185.079	33.42
0.0669434	185.199	33.46
0.0669922	185.579	33.5
0.0670898	185.528	33.54
0.0671387	185.887	33.58
0.0672363	186.01	33.62
0.0672852	186.236	33.66
0.0673828	186.642	33.7
0.0674316	186.606	33.74
0.0675293	186.989	33.78
0.0675781	187.338	33.82
0.0676758	187.568	33.86
0.0677734	187.973	33.9
0.0678223	188.377	33.94
0.0679199	188.688	33.98
0.0679688	188.993	34.02
0.0680664	189.012	34.06
0.0681641	189.632	34.1
0.0682129	189.797	34.14
0.0683105	189.985	34.18
0.0683594	190.281	34.22
0.068457	190.31	34.26
0.0685059	190.933	34.3
0.0686035	190.931	34.34
0.0686523	191.259	34.38
0.06875	191.669	34.42
0.0688477	191.823	34.46
0.0688965	192.299	34.5
0.0689941	192.327	34.54
0.0690918	192.778	34.58
0.0691406	193.107	34.62
0.0692383	193.18	34.66
0.0693359	193.669	34.7
0.0693848	193.98	34.74
0.0694824	194.422	34.78
0.0695801	194.91	34.82
0.0696777	194.922	34.86
0.0697266	195.382	34.9
0.0698242	195.451	34.94
0.0699219	195.559	34.98
0.0700195	195.725	35.02
0.0701172	195.373	35.06
0.070166	195.418	35.1
0.0702637	195.227	35.14
0.0703613	195.138	35.18
0.070459	195.289	35.22
0.0705566	195.48	35.26
0.0706543	195.653	35.3
0.0707031	195.714	35.34
0.0708008	195.654	35.38
0.0708984	195.654	35.42
0.0709473	195.469	35.46
0.0710449	195.49	35.5
0.0711426	195.267	35.54
0.0712402	194.955	35.58
0.0712891	194.475	35.62
0.0713867	193.562	35.66
0.0714355	192.576	35.7
0.0715332	191.78	35.74
0.0716309	190.805	35.78
0.0716797	190.271	35.82
0.0717773	189.34	35.86
0.071875	188.613	35.9
0.0719727	187.866	35.94
0.0720215	187.189	35.98
0.0721191	186.669	36.02
0.0722168	185.944	36.06
0.0722656	185.62	36.1
0.0723633	185.22	36.14
0.0724121	184.887	36.18
0.0725098	184.782	36.22
0.0726074	184.328	36.26
0.0726563	184.442	36.3
0.0727539	184.267	36.34
0.0728516	183.871	36.38
0.0729492	183.968	36.42
0.072998	183.476	36.46
0.0730957	183.057	36.5
0.0731445	182.701	36.54
0.0732422	182.476	36.58
0.073291	182.315	36.62
0.0733887	181.754	36.66
0.0734375	181.21	36.7
0.0735352	180.34	36.74
0.0736328	179.258	36.78
0.0736816	178.815	36.82
0.0737793	178.063	36.86
0.0738281	177.945	36.9
0.0739258	177.817	36.94
0.0739746	177.476	36.98
0.0740723	177.14	37.02
0.0741211	176.713	37.06
0.0742187	176.727	37.1
0.0742676	176.873	37.14
0.0743652	176.814	37.18
0.0744141	177.039	37.22
0.0745117	177.169	37.26
0.0745606	177.296	37.3
0.0746582	177.484	37.34
0.0747559	177.412	37.38
0.0748047	177.649	37.42
0.0749023	177.75	37.46
0.0749512	177.896	37.5
0.0750488	178.252	37.54
0.0750977	178.316	37.58
0.0751953	178.678	37.62
0.0752441	178.8	37.66
0.0753418	179.256	37.7
0.0754394	179.508	37.74
0.0754883	179.478	37.78
0.0755859	179.627	37.82
0.0756348	179.814	37.86
0.0757324	179.942	37.9
0.0758301	180.079	37.94
0.0759277	180.192	37.98
0.0759766	180.509	38.02
0.0760742	180.58	38.06
0.0761719	180.532	38.1
0.0762695	180.702	38.14
0.0763184	180.609	38.18
0.076416	180.82	38.22
0.0765137	180.869	38.26
0.0766113	180.488	38.3
0.076709	180.618	38.34
0.0767578	180.402	38.38
0.0768555	180.296	38.42
0.0769531	180.308	38.46
0.0770508	180.294	38.5
0.0770996	180.566	38.54
0.0771973	180.1	38.58
0.0772949	180.198	38.62
0.0773926	180.23	38.66
0.0774414	180.133	38.7
0.0775391	180.165	38.74
0.0776367	180.15	38.78
0.0776855	180.339	38.82
0.0777832	180.246	38.86
0.0778809	180.089	38.9
0.0779297	180.215	38.94
0.0780273	180.087	38.98
0.078125	180.262	39.02
0.0781738	180.353	39.06
0.0782715	180.198	39.1
0.0783691	180.44	39.14
0.078418	180.347	39.18
0.0785156	180.488	39.22
0.0785645	180.432	39.26
0.0786621	180.234	39.3
0.0787598	180.395	39.34
0.0788086	180.122	39.38
0.0789062	180.151	39.42
0.0790039	180.022	39.46
0.0790527	179.986	39.5
0.0791504	180.184	39.54
0.0791992	180.077	39.58
0.0792969	180.11	39.62
0.0793457	180.15	39.66
0.0794434	180.231	39.7
0.079541	180.387	39.74
0.0795898	180.326	39.78
0.0796875	180.482	39.82
0.0797363	180.545	39.86
0.079834	180.494	39.9
0.0798828	180.799	39.94
0.0799805	180.651	39.98
0.0800293	180.811	40.02
0.080127	180.966	40.06
0.0802246	181.003	40.1
0.0802734	181.393	40.14
0.0803711	181.471	40.18
0.0804199	181.724	40.22
0.0805176	181.899	40.26
0.0805664	182.113	40.3
0.0806641	182.364	40.34
0.0807129	182.494	40.38
0.0808105	182.705	40.42
0.0808594	182.977	40.46
0.080957	182.945	40.5
0.0810059	183.221	40.54
0.0811035	183.302	40.58
0.0811523	183.306	40.62
0.08125	183.407	40.66
0.0812988	183.26	40.7
0.0813965	183.326	40.74
0.0814453	183.037	40.78
0.081543	182.928	40.82
0.0816406	182.992	40.86
0.0816895	182.839	40.9
0.0817871	182.759	40.94
0.0818359	182.442	40.98
0.0819336	182.09	41.02
0.0819824	182.068	41.06
0.0820801	181.442	41.1
0.0821289	181.309	41.14
0.0822266	181.179	41.18
0.0823242	180.835	41.22
0.082373	178.852	41.26
0.0824707	176.952	41.3
0.0825684	175.73	41.34
0.082666	174.607	41.38
0.0827148	173.306	41.42
0.0828125	172.325	41.46
0.0829102	171.128	41.5
0.0830078	170.338	41.54
0.0830566	169.703	41.58
0.0831543	169.116	41.62
0.083252	168.676	41.66
0.0833496	168.103	41.7
0.0834473	167.727	41.74
0.0835449	167.352	41.78
0.0835938	166.847	41.82
0.0836914	166.402	41.86
0.0837402	165.768	41.9
0.0838379	165.299	41.94
0.0839355	165.086	41.98
0.0840332	164.733	42.02
0.0841309	164.59	42.06
0.0841797	164.187	42.1
0.0842773	163.868	42.14
0.0843262	163.789	42.18
0.0844238	163.561	42.22
0.0845215	163.586	42.26
0.0846191	163.176	42.3
0.084668	162.976	42.34
0.0847656	162.712	42.38
0.0848633	162.478	42.42
0.0849121	162.576	42.46
0.0850098	162.318	42.5
0.0851074	162.326	42.54
0.0852051	162.331	42.58
0.0852539	162.123	42.62
0.0853516	162.191	42.66
0.0854492	161.885	42.7
0.085498	161.467	42.74
0.0855957	161.21	42.78
0.0856934	160.753	42.82
0.0857422	160.694	42.86
0.0858398	160.182	42.9
0.0858887	159.891	42.94
0.0859863	159.656	42.98
0.0860352	159.244	43.02
0.0861328	159.062	43.06
0.0862305	158.855	43.1
0.0862793	158.64	43.14
0.086377	158.491	43.18
0.0864746	158.087	43.22
0.0865234	158.068	43.26
0.0865723	157.639	43.3
0.0866699	157.536	43.34
0.0867676	157.427	43.38
0.0868164	157.022	43.42
0.0869141	156.71	43.46
0.0869629	156.577	43.5
0.0870605	156.335	43.54
0.0871094	156.228	43.58
0.087207	155.833	43.62
0.0872559	155.699	43.66
0.0873535	155.547	43.7
0.0874512	155.189	43.74
0.0875	155.055	43.78
0.0875977	154.631	43.82
0.0876953	154.3	43.86
0.0877441	153.862	43.9
0.0878418	153.153	43.94
0.0878906	152.772	43.98
0.0879883	151.964	44.02
0.0880371	151.468	44.06
0.0881348	150.747	44.1
0.0881836	150.158	44.14
0.0882813	149.818	44.18
0.0883301	149.306	44.22
0.0884277	148.789	44.26
0.0884766	148.175	44.3
0.0885742	147.68	44.34
0.0886719	147.439	44.38
0.0887695	146.981	44.42
0.0888184	146.718	44.46
0.088916	146.468	44.5
0.0889648	146.231	44.54
0.0890625	145.918	44.58
0.0891602	145.464	44.62
0.089209	145.074	44.66
0.0893066	144.807	44.7
0.0894043	144.556	44.74
0.089502	144.501	44.78
0.0895508	144.159	44.82
0.0896484	144.006	44.86
0.0897949	143.739	44.9
0.0898438	143.106	44.94
0.0899414	142.888	44.98
0.0900391	142.241	45.02
0.0901367	141.633	45.06
0.0901855	140.996	45.1
0.0902832	140.1	45.14
0.0903809	139.58	45.18
0.0904785	138.786	45.22
0.0905273	138.058	45.26
0.090625	137.574	45.3
0.0907227	136.813	45.34
0.0907715	136.183	45.38
0.0908691	135.213	45.42
0.0909668	134.517	45.46
0.0910645	133.859	45.5
0.0911133	133.096	45.54
0.0912109	132.819	45.58
0.0913086	132.15	45.62
0.0913574	131.372	45.66
0.0914551	130.87	45.7
0.0915527	130.199	45.74
0.0916504	129.764	45.78
0.0916992	129.185	45.82
0.0917481	128.524	45.86
0.0918457	127.925	45.9
0.0919434	127.137	45.94
0.092041	126.784	45.98
0.0920898	126.151	46.02
0.0921875	125.451	46.06
0.0922363	123.218	46.1
0.092334	28.7804	46.14
0.0924316	19.1399	46.181