File: Data/Thesis_Samples_Data/Flexural_Solid_3/Flexural_Solid_3.csv
"File Path: C:\Users\Lab User\Desktop\Will\Thesis Tests\Test Run 6 04-8-22 15 05 49 PM\DAQ- Crosshead, … - (Timed).txt   ",,
Test: MTS EM Flexure (3-Point Bend) - Will 1,,
Test Run: Test Run 6,,
Date: 4/8/2022 2:59:47 PM,,
,,
,,
Crosshead ,Load ,Time
mm,N,sec
4.88E-05,4.10597,0.02
9.77E-05,3.94375,0.08
0.000146484,4.11797,0.14
0.000195312,4.14858,0.2
0.000244141,4.13938,0.26
0.000292969,4.2731,0.32
0.000390625,4.19031,0.38
0.000488281,4.32669,0.44
0.000634766,4.5072,0.5
0.00078125,4.78672,0.56
0.000927734,5.01092,0.62
0.001074219,5.11264,0.68
0.001220703,5.54092,0.74
0.001367187,5.64638,0.8
0.001513672,5.90947,0.86
0.001660156,6.09591,0.92
0.001806641,6.23091,0.98
0.001904297,6.62228,1.04
0.002050781,6.76577,1.1
0.002197266,6.96898,1.16
0.00234375,7.37759,1.22
0.002441406,7.53716,1.28
0.002587891,7.79607,1.34
0.002734375,7.91727,1.4
0.002832031,8.25736,1.46
0.002978516,8.45617,1.52
0.003125,8.61155,1.58
0.003222656,9.07646,1.64
0.003369141,9.172,1.7
0.003466797,9.43881,1.76
0.003613281,9.70918,1.82
0.003710938,9.85145,1.88
0.003857422,10.3206,1.94
0.004003906,10.3876,2
0.004101562,10.8048,2.06
0.004248047,11.0401,2.12
0.004345703,11.2019,2.18
0.004492188,11.4643,2.24
0.004589844,11.6567,2.3
0.004736328,12.1131,2.36
0.004833984,12.257,2.42
0.004980469,12.4766,2.48
0.005078125,12.876,2.54
0.005175781,12.9388,2.6
0.005322266,13.344,2.66
0.005419922,13.4379,2.72
0.005566406,13.7312,2.78
0.005664062,14.0175,2.84
0.005761719,14.0822,2.9
0.005859375,14.4761,2.96
0.006005859,14.699,3.02
0.006103516,14.8603,3.08
0.006201172,15.1912,3.14
0.006347656,15.316,3.2
0.006445312,15.6964,3.26
0.006542969,15.8818,3.32
0.006689453,16.1815,3.38
0.006787109,16.5548,3.44
0.006933594,16.702,3.5
0.00703125,17.0246,3.56
0.007128906,17.0927,3.62
0.007275391,17.4368,3.68
0.007373047,17.6911,3.74
0.007519531,17.9224,3.8
0.007617187,18.3211,3.86
0.007763672,18.423,3.92
0.007861328,18.7985,3.98
0.008007813,19.0681,4.04
0.008154297,19.2223,4.1
0.008251953,19.6183,4.16
0.008398438,19.7071,4.22
0.008496094,20.0726,4.28
0.008642578,20.4148,4.34
0.008789062,20.6343,4.4
0.008886719,20.9199,4.46
0.009033203,20.9552,4.52
0.009179687,21.4404,4.58
0.009277343,21.6878,4.64
0.009423828,21.8028,4.7
0.009521485,22.3618,4.76
0.009667969,22.4065,4.82
0.009765625,22.8218,4.88
0.00991211,23.0302,4.94
0.0100098,23.3266,5
0.01015625,23.7431,5.06
0.0102539,23.9083,5.12
0.01040039,24.3047,5.18
0.010498,24.5281,5.24
0.0106445,24.7962,5.3
0.0107422,25.1242,5.36
0.0108887,25.3055,5.42
0.0109863,25.8057,5.48
0.0111328,26.0249,5.54
0.0112305,26.3109,5.6
0.0113281,26.6518,5.66
0.0114746,26.9075,5.72
0.0115723,27.45,5.78
0.0116699,27.4976,5.84
0.0118164,27.844,5.9
0.0119141,28.2338,5.96
0.0120117,28.4423,6.02
0.0121582,28.8289,6.08
0.0122559,29.0375,6.14
0.0123535,29.385,6.2
0.0125,29.5727,6.26
0.0125977,29.8276,6.32
0.0126953,30.4008,6.38
0.0128418,30.4348,6.44
0.0129395,30.9042,6.5
0.0130371,31.2082,6.56
0.0131836,31.4127,6.62
0.01328125,31.803,6.68
0.0133789,31.9052,6.74
0.0134766,32.3665,6.8
0.013623,32.7377,6.86
0.0137207,32.9187,6.92
0.01381836,33.3121,6.98
0.0139648,33.5153,7.04
0.0140625,33.9805,7.1
0.014209,34.2023,7.16
0.0143066,34.4941,7.22
0.0144531,34.9302,7.28
0.0145996,35.1767,7.34
0.0146973,35.6793,7.4
0.01484375,35.9034,7.46
0.0149414,36.2899,7.52
0.01508789,36.6478,7.58
0.0152344,36.8057,7.64
0.015332,37.4366,7.7
0.0154785,37.7202,7.76
0.015625,38.1525,7.82
0.0157715,38.463,7.88
0.01586914,38.7242,7.94
0.0160156,39.2784,8
0.01616211,39.5023,8.06
0.0162598,39.8372,8.12
0.0164062,40.2234,8.18
0.0165039,40.5297,8.24
0.0166504,40.9727,8.3
0.0167969,41.2154,8.36
0.0168945,41.642,8.42
0.0169922,41.9658,8.48
0.0171387,42.1854,8.54
0.0172363,42.7233,8.6
0.0173828,42.944,8.66
0.0174805,43.4007,8.72
0.017627,43.6298,8.78
0.0177246,44.0215,8.84
0.0178711,44.3736,8.9
0.01796875,44.5519,8.96
0.0181152,45.0884,9.02
0.0182129,45.379,9.08
0.0183105,45.6781,9.14
0.018457,46.0669,9.2
0.0185547,46.2113,9.26
0.0187012,46.7243,9.32
0.0187988,46.9953,9.38
0.0188965,47.3129,9.44
0.019043,47.7327,9.5
0.0191406,47.8989,9.56
0.0192383,48.3711,9.62
0.0193848,48.5968,9.68
0.0194824,48.8622,9.74
0.0195801,49.2661,9.8
0.0196777,49.4442,9.86
0.01982422,50.0031,9.92
0.0199219,50.2887,9.98
0.0200684,50.6141,10.04
0.020166,51.0046,10.1
0.0202637,51.2363,10.16
0.0204102,51.7973,10.22
0.0205078,51.9357,10.28
0.0206543,52.3541,10.34
0.020752,52.7122,10.4
0.0208496,53.0488,10.46
0.0209961,53.5591,10.52
0.0211426,53.7944,10.58
0.0212402,54.2176,10.64
0.0213867,54.5314,10.7
0.0214844,54.9503,10.76
0.02163086,55.4577,10.82
0.0217773,55.7321,10.88
0.0219238,56.2614,10.94
0.0220215,56.6447,11
0.022168,57.0226,11.06
0.0223145,57.4451,11.12
0.0224121,57.5631,11.18
0.0225586,58.1342,11.24
0.02265625,58.4353,11.3
0.0227539,58.9003,11.36
0.0229004,59.2621,11.42
0.0230469,59.4968,11.48
0.0231445,60.0846,11.54
0.023291,60.3793,11.6
0.0233887,60.7454,11.66
0.0235352,61.1477,11.72
0.0236328,61.5633,11.78
0.0237793,62.0038,11.84
0.023877,62.1256,11.9
0.0240234,62.5489,11.96
0.0241211,63.0228,12.02
0.0242676,63.3058,12.08
0.0243652,63.8504,12.14
0.02446289,64.0486,12.2
0.0246094,64.4936,12.26
0.024707,64.8757,12.32
0.0248047,65.1341,12.38
0.0249512,65.581,12.44
0.0250488,65.9008,12.5
0.0251953,66.3706,12.56
0.025293,66.6681,12.62
0.0253906,66.9898,12.68
0.0255371,67.4819,12.74
0.0256348,67.6437,12.8
0.0257324,68.1394,12.86
0.0258301,68.4405,12.92
0.0259766,68.8163,12.98
0.0260742,69.2242,13.04
0.0261719,69.5191,13.1
0.0263184,70.0618,13.16
0.026416,70.3114,13.22
0.0265137,70.6419,13.28
0.0266113,71.1066,13.34
0.0267578,71.3329,13.4
0.0268555,71.9119,13.46
0.0269531,72.2003,13.52
0.02709961,72.6559,13.58
0.0271973,73.1112,13.64
0.0272949,73.3445,13.7
0.0274414,73.8697,13.76
0.0275391,74.3327,13.82
0.0276855,74.8148,13.88
0.0277832,75.2587,13.94
0.0279297,75.6002,14
0.0280762,76.2401,14.06
0.0281738,76.4623,14.12
0.0283203,77.0434,14.18
0.02841797,77.5059,14.24
0.0285645,77.8781,14.3
0.0286621,78.4511,14.36
0.0288086,78.831,14.42
0.0289551,79.3568,14.48
0.0290527,79.8455,14.54
0.0291992,80.2439,14.6
0.0292969,80.6981,14.66
0.0294434,81.0392,14.72
0.0295898,81.7062,14.78
0.0296875,82.1031,14.84
0.029834,82.5957,14.9
0.02993164,83.0504,14.96
0.0300781,83.2762,15.02
0.0301758,83.9604,15.08
0.0303223,84.3547,15.14
0.0304199,84.7848,15.2
0.0305664,85.3056,15.26
0.0306641,85.6605,15.32
0.0308105,86.2586,15.38
0.0309082,86.4945,15.44
0.03100586,87.0397,15.5
0.0311523,87.506,15.56
0.03125,87.8923,15.62
0.0313477,88.3913,15.68
0.0314941,88.6444,15.74
0.0315918,89.2202,15.8
0.03173828,89.6438,15.86
0.0318359,89.9934,15.92
0.0319336,90.6359,15.98
0.0320801,90.8326,16.04
0.0321777,91.4352,16.1
0.0322754,91.7824,16.16
0.032373,92.1831,16.22
0.0325195,92.7145,16.28
0.0326172,92.9812,16.34
0.0327148,93.4552,16.4
0.0328125,93.8176,16.46
0.032959,94.3353,16.52
0.03305664,94.8849,16.58
0.0332031,95.0291,16.64
0.0333008,95.7243,16.7
0.0333984,96.1445,16.76
0.0335449,96.5396,16.82
0.0336426,97.1045,16.88
0.0337402,97.3667,16.94
0.0338867,97.9645,17
0.0339844,98.4188,17.06
0.0341309,98.9456,17.12
0.0342285,99.3556,17.18
0.034375,99.7987,17.24
0.0344727,100.495,17.3
0.0346191,100.747,17.36
0.0347168,101.423,17.42
0.0348633,101.948,17.48
0.0350098,102.461,17.54
0.0351562,103.147,17.6
0.0352539,103.52,17.66
0.03540039,104.134,17.72
0.0355469,104.716,17.78
0.03569336,105.262,17.84
0.035791,105.809,17.9
0.0359375,106.232,17.96
0.0360352,106.928,18.02
0.0361816,107.485,18.08
0.0362793,107.888,18.14
0.0364258,108.546,18.2
0.0365723,108.964,18.26
0.0366699,109.649,18.32
0.0368164,110.19,18.38
0.0369141,110.731,18.44
0.0370605,111.344,18.5
0.037207,111.772,18.56
0.0373047,112.5,18.62
0.0374023,112.809,18.68
0.0375488,113.422,18.74
0.0376465,114.111,18.8
0.037793,114.454,18.86
0.0378906,115.161,18.92
0.0380371,115.506,18.98
0.0381348,116.223,19.04
0.03828125,116.67,19.1
0.0383789,117.066,19.16
0.0384766,117.807,19.22
0.038623,118.275,19.28
0.0387207,118.735,19.34
0.0388184,119.363,19.4
0.0389648,117.92,19.46
0.0390625,118.302,19.52
0.0391602,118.697,19.58
0.03930664,119.353,19.64
0.0394043,120.051,19.7
0.039502,120.486,19.76
0.0396484,121.013,19.82
0.0397461,121.367,19.88
0.0398438,122.201,19.94
0.0399414,122.591,20
0.0400879,123.1,20.06
0.0401855,123.808,20.12
0.04033203,124.181,20.18
0.0404297,124.857,20.24
0.0405273,125.303,20.3
0.0406738,125.883,20.36
0.0407715,126.56,20.42
0.0408691,127.021,20.48
0.0410156,127.751,20.54
0.0411621,128.226,20.6
0.0412598,128.975,20.66
0.0414062,129.483,20.72
0.0415039,130.076,20.78
0.04165039,131.016,20.84
0.0417969,131.344,20.9
0.04194336,132.176,20.96
0.042041,132.964,21.02
0.0421875,133.294,21.08
0.0422852,133.975,21.14
0.0424316,134.33,21.2
0.0425293,135.142,21.26
0.04267578,135.845,21.32
0.0428223,136.262,21.38
0.0429199,136.986,21.44
0.0430664,137.48,21.5
0.0431641,138.569,21.56
0.04326172,138.657,21.62
0.0434082,139.331,21.68
0.0435547,139.998,21.74
0.0436523,140.488,21.8
0.0437988,141.154,21.86
0.0438965,141.87,21.92
0.044043,142.245,21.98
0.0441406,142.933,22.04
0.04428711,143.338,22.1
0.0443848,144.015,22.16
0.0444824,144.598,22.22
0.0446289,145.069,22.28
0.0447266,145.602,22.34
0.0448242,146.044,22.4
0.0449707,146.683,22.46
0.0450684,147.17,22.52
0.0452148,147.762,22.58
0.0453125,148.31,22.64
0.0454102,148.635,22.7
0.0455078,149.337,22.76
0.0456543,149.622,22.82
0.045752,150.371,22.88
0.0458496,150.835,22.94
0.0459961,151.247,23
0.0460938,151.93,23.06
0.0461914,152.354,23.12
0.0462891,152.948,23.18
0.0464355,153.396,23.24
0.0465332,154.18,23.3
0.0466309,154.732,23.36
0.0467773,155.042,23.42
0.046875,156.054,23.48
0.0470215,156.491,23.54
0.0471191,157.144,23.6
0.0472168,157.808,23.66
0.0473633,158.314,23.72
0.0474609,159.284,23.78
0.04760742,159.783,23.84
0.0477051,160.383,23.9
0.0478516,161.23,23.96
0.0479492,162.018,24.02
0.0480957,162.798,24.08
0.04819336,163.505,24.14
0.0483398,164.504,24.2
0.0484863,165.096,24.26
0.0486328,166.072,24.32
0.0487305,166.846,24.38
0.048877,167.586,24.44
0.0489746,168.639,24.5
0.0491211,169.232,24.56
0.04921875,170.051,24.62
0.0493652,170.879,24.68
0.04951172,171.533,24.74
0.0496582,172.538,24.8
0.0497559,173.378,24.86
0.0499023,174.221,24.92
0.05,175.017,24.98
0.0501465,175.506,25.04
0.05024414,176.475,25.1
0.0503906,177.195,25.16
0.0504883,177.9,25.22
0.0506348,178.725,25.28
0.0507324,179.666,25.34
0.0508789,180.44,25.4
0.0509766,181.066,25.46
0.051123,181.914,25.52
0.0512207,182.916,25.58
0.0513672,183.433,25.64
0.0514648,184.256,25.7
0.0515625,184.936,25.76
0.051709,185.702,25.82
0.0518066,186.407,25.88
0.0519043,187.11,25.94
0.0520508,187.811,26
0.0521484,188.491,26.06
0.0522461,189.265,26.12
0.0523926,189.852,26.18
0.0524902,190.473,26.24
0.05258789,191.518,26.3
0.0527344,191.878,26.36
0.052832,192.784,26.42
0.0529297,193.417,26.48
0.0530273,194.132,26.54
0.05317383,194.872,26.6
0.0532715,195.408,26.66
0.0533691,196.349,26.72
0.0534668,197.139,26.78
0.0536133,197.98,26.84
0.0537109,198.838,26.9
0.05385742,199.441,26.96
0.0539551,200.479,27.02
0.0541016,201.086,27.08
0.0541992,202.041,27.14
0.0543457,202.891,27.2
0.0544434,203.489,27.26
0.0545898,204.394,27.32
0.0546875,205.123,27.38
0.054834,206.06,27.44
0.0549805,206.961,27.5
0.055127,207.64,27.56
0.0552246,208.766,27.62
0.0553711,209.206,27.68
0.0555176,209.926,27.74
0.0556152,210.735,27.8
0.05576172,211.183,27.86
0.0558594,211.942,27.92
0.0560059,212.304,27.98
0.0561523,213.122,28.04
0.05625,213.331,28.1
0.0563965,213.24,28.16
0.05649414,213.743,28.22
0.0566406,213.824,28.28
0.0567383,213.94,28.34
0.0568848,213.471,28.4
0.0569824,213.164,28.46
0.0571289,212.748,28.52
0.0572266,212.581,28.58
0.057373,212.851,28.64
0.0574707,212.952,28.7
0.0576172,213.155,28.76
0.0577148,213.74,28.82
0.0578125,213.903,28.88
0.057959,214.503,28.94
0.0580566,214.706,29
0.0582031,215.018,29.06
0.0583008,215.424,29.12
0.0583984,215.804,29.18
0.0585449,216.219,29.24
0.0586426,216.373,29.3
0.0587402,216.812,29.36
0.05883789,217.15,29.42
0.0589844,217.382,29.48
0.059082,217.947,29.54
0.0591797,218.116,29.6
0.0593262,218.575,29.66
0.0594238,218.939,29.72
0.0595215,219.058,29.78
0.059668,219.41,29.84
0.0597656,219.518,29.9
0.05986328,219.938,29.96
0.0600098,220.048,30.02
0.0601074,220.311,30.08
0.0602051,220.665,30.14
0.0603516,220.89,30.2
0.06044922,221.335,30.26
0.0605469,221.477,30.32
0.0606445,221.223,30.38
0.060791,221.249,30.44
0.0608887,221.072,30.5
0.0610352,220.836,30.56
0.0611328,220.747,30.62
0.0612793,220.531,30.68
0.061377,220.727,30.74
0.0615234,220.909,30.8
0.0616699,221.221,30.86
0.0617676,221.241,30.92
0.0619141,221.295,30.98
0.06206055,221.233,31.04
0.062207,221.177,31.1
0.0623047,221.21,31.16
0.0624512,221.021,31.22
0.0625488,221.289,31.28
0.0626953,221.185,31.34
0.062793,221.377,31.4
0.0629395,221.708,31.46
0.0630859,221.628,31.52
0.0631836,221.775,31.58
0.0632813,221.67,31.64
0.0634277,221.79,31.7
0.0635254,222.123,31.76
0.0636719,222.031,31.82
0.0637695,222.479,31.88
0.063916,222.564,31.94
0.0640137,222.507,32
0.0641602,222.577,32.06
0.0642578,222.548,32.12
0.0644043,222.527,32.18
0.064502,222.228,32.24
0.06464844,221.772,32.3
0.0647461,221.213,32.36
0.0648437,220.772,32.42
0.0649414,220.186,32.48
0.0650879,219.749,32.54
0.0651855,219.286,32.6
0.065332,218.99,32.66
0.0654297,218.864,32.72
0.0655273,218.854,32.78
0.0656738,218.687,32.84
0.0657715,218.97,32.9
0.0658691,218.955,32.96
0.0660156,218.975,33.02
0.06611328,219.365,33.08
0.0662109,219.245,33.14
0.0663086,219.553,33.2
0.0664551,219.556,33.26
0.0665527,219.634,33.32
0.0666504,220.048,33.38
0.0667969,220.076,33.44
0.0668945,220.755,33.5
0.067041,221.028,33.56
0.0671387,221.465,33.62
0.0672852,221.967,33.68
0.0673828,222.231,33.74
0.0675293,222.997,33.8
0.067627,223.207,33.86
0.0677246,223.618,33.92
0.0678711,224.231,33.98
0.06801758,224.697,34.04
0.0681152,225.563,34.1
0.0682617,225.814,34.16
0.0683594,226.265,34.22
0.0685059,226.806,34.28
0.0686523,227.106,34.34
0.06875,227.663,34.4
0.0688965,227.795,34.46
0.069043,228.458,34.52
0.0691895,228.68,34.58
0.0692871,228.855,34.64
0.06943359,229.42,34.7
0.0695312,229.417,34.76
0.0696777,229.845,34.82
0.0698242,230.088,34.88
0.0699219,230.186,34.94
0.0700684,230.462,35
0.070166,230.597,35.06
0.0703125,230.879,35.12
0.0704102,230.978,35.18
0.0705566,230.973,35.24
0.0706543,231.159,35.3
0.0708008,230.874,35.36
0.0708984,231.177,35.42
0.0710449,230.649,35.48
0.0711426,230.47,35.54
0.0712402,229.995,35.6
0.0713867,229.478,35.66
0.0714844,229.643,35.72
0.0716309,229.081,35.78
0.0717285,226.398,35.84
0.0718262,224.742,35.9
0.0719727,223.391,35.96
0.07207031,222.824,36.02
0.072168,222.051,36.08
0.0722656,221.904,36.14
0.0724121,221.899,36.2
0.0725098,221.816,36.26
0.07265625,221.897,36.32
0.0727539,221.725,36.38
0.0728516,221.949,36.44
0.0729492,221.844,36.5
0.0730957,222.048,36.56
0.0731934,222.434,36.62
0.073291,222.415,36.68
0.0734375,222.936,36.74
0.0735352,223.174,36.8
0.0736328,223.722,36.86
0.0737305,224.017,36.92
0.073877,224.399,36.98
0.0740234,224.874,37.04
0.0741211,225.384,37.1
0.0742187,225.722,37.16
0.0743652,226.44,37.22
0.0744629,226.603,37.28
0.0746094,227.159,37.34
0.0747559,227.598,37.4
0.0748535,228.173,37.46
0.075,228.67,37.52
0.0751465,229.256,37.58
0.0752441,229.778,37.64
0.0753906,230.065,37.7
0.0755371,230.652,37.76
0.0756348,231.009,37.82
0.0757813,231.269,37.88
0.0758789,231.749,37.94
0.07602539,231.76,38
0.0761719,232.187,38.06
0.0762695,232.142,38.12
0.076416,231.979,38.18
0.0765137,232.104,38.24
0.0766602,231.825,38.3
0.0767578,231.714,38.36
0.0769043,231.64,38.42
0.077002,231.588,38.48
0.0771484,231.434,38.54
0.0772461,231.257,38.6
0.0773926,230.933,38.66
0.0774902,230.394,38.72
0.0775879,230.125,38.78
0.0777344,229.855,38.84
0.077832,229.303,38.9
0.0779785,228.796,38.96
0.0780762,228.043,39.02
0.0782227,227.146,39.08
0.0783203,226.259,39.14
0.078418,225.042,39.2
0.0785645,223.943,39.26
0.0786621,222.213,39.32
0.0787598,221.173,39.38
0.0789062,219.767,39.44
0.0790039,218.591,39.5
0.0791016,217.83,39.56
0.07924805,216.809,39.62
0.0793457,216.215,39.68
0.0794434,215.842,39.74
0.079541,215.311,39.8
0.0796875,215.203,39.86
0.0797852,214.697,39.92
0.0798828,214.63,39.98
0.0800293,214.445,40.04
0.080127,214.405,40.1
0.0802246,214.19,40.16
0.0803711,213.866,40.22
0.0804688,214.053,40.28
0.0806152,213.984,40.34
0.0807129,213.932,40.4
0.0808594,214.045,40.46
0.080957,213.914,40.52
0.0811035,214.217,40.58
0.0812012,214.236,40.64
0.0813477,214.194,40.7
0.0814941,214.481,40.76
0.0815918,214.44,40.82
0.0817383,214.492,40.88
0.08183594,214.316,40.94
0.08198242,214.407,41
0.0821289,214.316,41.06
0.0822266,214.302,41.12
0.082373,214.569,41.18
0.0825195,214.29,41.24
0.0826172,214.369,41.3
0.0827637,214.212,41.36
0.0829102,214.15,41.42
0.0830078,214.141,41.48
0.0831543,214.014,41.54
0.083252,214.068,41.6
0.0833984,213.866,41.66
0.0834961,213.747,41.72
0.0836426,213.592,41.78
0.0837402,213.317,41.84
0.08388672,213.173,41.9
0.0839844,212.791,41.96
0.0841309,212.431,42.02
0.0842285,212.412,42.08
0.084375,212.008,42.14
0.0844727,212.053,42.2
0.08461914,211.669,42.26
0.0847168,211.403,42.32
0.0848145,211.268,42.38
0.0849609,210.994,42.44
0.0850586,210.964,42.5
0.08520508,210.589,42.56
0.0853027,210.515,42.62
0.0854004,210.381,42.68
0.0855469,210.12,42.74
0.0856445,210.154,42.8
0.0857422,209.943,42.86
0.0858398,209.64,42.92
0.0859863,209.525,42.98
0.086084,209.101,43.04
0.0861816,208.897,43.1
0.0863281,208.142,43.16
0.0864258,207.827,43.22
0.08652344,207.415,43.28
0.0866699,206.929,43.34
0.0867676,206.667,43.4
0.0868652,206.23,43.46
0.0870117,205.949,43.52
0.0871094,205.654,43.58
0.0872559,204.994,43.64
0.0873535,204.719,43.7
0.0874512,202.811,43.76
0.0875977,202.013,43.82
0.0877441,201.294,43.88
0.0878418,200.615,43.94
0.08793945,200.365,44
0.0880859,199.907,44.06
0.0882324,199.794,44.12
0.0883301,199.541,44.18
0.0884766,199.254,44.24
0.088623,199.05,44.3
0.0887207,198.852,44.36
0.0888672,198.927,44.42
0.0890137,198.642,44.48
0.08911133,198.638,44.54
0.08925781,198.567,44.6
0.0893555,198.356,44.66
0.089502,198.414,44.72
0.0895996,198.229,44.78
0.0897461,198.25,44.84
0.08984375,198.222,44.9
0.0899902,197.946,44.96
0.0901367,197.716,45.02
0.0902344,197.284,45.08
0.090332,197.168,45.14
0.0904785,196.852,45.2
0.09057617,196.656,45.26
0.0907227,196.515,45.32
0.0908203,196.101,45.38
0.0909668,196.054,45.44
0.0910645,195.912,45.5
0.09116211,195.61,45.56
0.0913086,195.491,45.62
0.0914062,195.182,45.68
0.0915039,195.15,45.74
0.0916504,195,45.8
0.09174805,194.77,45.86
0.0918457,194.714,45.92
0.0919434,194.445,45.98
0.0920898,194.487,46.04
0.0921875,194.338,46.1
0.0922852,194.105,46.16
0.0924316,193.978,46.22
0.0925293,193.801,46.28
0.092627,193.755,46.34
0.0927734,193.48,46.4
0.0928711,193.558,46.46
0.0929688,193.27,46.52
0.0930664,192.949,46.58
0.09321289,192.972,46.64
0.0933105,192.707,46.7
0.0934082,192.698,46.76
0.0935547,192.61,46.82
0.0936523,192.589,46.88
0.09375,192.619,46.94
0.0938965,192.334,47
0.0939941,192.466,47.06
0.0941406,192.268,47.12
0.0942383,192.246,47.18
0.0943848,192.237,47.24
0.0944824,191.913,47.3
0.0945801,191.9375,47.36
0.0947266,191.651,47.42
0.094873,191.351,47.48
0.0949707,191.243,47.54
0.09511719,190.818,47.6
0.0952637,190.764,47.66
0.0953613,190.518,47.72
0.0955078,190.376,47.78
0.0956543,190.266,47.84
0.09580078,189.907,47.9
0.0958984,189.756,47.96
0.0960449,189.3,48.02
0.0961426,188.708,48.08
0.0962891,188.25,48.14
0.0963867,187.673,48.2
0.0965332,187.35,48.26
0.0966797,186.62,48.32
0.0967773,186.171,48.38
0.0969238,185.614,48.44
0.0970215,185.124,48.5
0.097168,184.845,48.56
0.0972656,184.233,48.62
0.0974121,183.921,48.68
0.0975098,183.545,48.74
0.0976074,182.991,48.8
0.0977539,182.663,48.86
0.09785156,182.047,48.92
0.0979492,181.748,48.98
0.0980957,181.395,49.04
0.0981934,180.818,49.1
0.0983398,180.632,49.16
0.0984375,180.185,49.22
0.098584,180.063,49.28
0.0986816,179.632,49.34
0.0987793,179.504,49.4
0.0989258,179.077,49.46
0.09902344,178.574,49.52
0.0991211,178.47,49.58
0.0992187,178.029,49.64
0.0993164,177.576,49.7
0.0994629,177.374,49.76
0.0995605,176.754,49.82
0.099707,176.389,49.88
0.0998047,175.897,49.94
0.0999023,175.504,50
0.100049,175.019,50.06
0.100146,174.45,50.12
0.100244,174.314,50.18
0.100391,173.574,50.24
0.100488,173.259,50.3
0.100635,172.701,50.36
0.100732,171.966,50.42
0.100879,171.541,50.48
0.100977,170.513,50.54
0.101123,169.785,50.6
0.101221,168.8638,50.66
0.101367,168,50.72
0.101514,167.114,50.78
0.101611,166.209,50.84
0.101758,165.664,50.9
0.101904,164.932,50.96
0.102002,164.259,51.02
0.102148,163.77,51.08
0.102295,163.106,51.14
0.102441,162.732,51.2
0.102588,162.018,51.26
0.102686,161.468,51.32
0.102783,160.819,51.38
0.10293,160.105,51.44
0.103076,159.39,51.5
0.103174,157.325,51.56
0.103271,156.389,51.62
0.103418,155.533,51.68
0.103564,154.716,51.74
0.103662,154.215,51.8
0.103809,153.318,51.86
0.103906,152.737,51.92
0.104004,152.082,51.98
0.10415,151.43,52.04
0.104248,150.841,52.1
0.104395,149.922,52.16
0.104492,149.208,52.22
0.104639,148.301,52.28
0.104736,147.211,52.34
0.104883,146.387,52.4
0.10498,145.5,52.46
0.105078,144.827,52.52
0.105176,143.998,52.58
0.105322,143.14,52.64
0.10542,142.454,52.7
0.105518,141.357,52.76
0.105664,140.578,52.82
0.105762,139.678,52.88
0.105859,138.812,52.94
0.106006,138.045,53
0.106104,136.99,53.06
0.106201,136.453,53.12
0.106348,135.518,53.18
0.106445,134.729,53.24
0.106543,134.231,53.3
0.106641,133.327,53.36
0.106787,133.059,53.42
0.106885,132.387,53.48
0.107031,131.854,53.54
0.107129,131.537,53.6
0.107227,130.993,53.66
0.107373,130.631,53.72
0.10752,130.038,53.78
0.107617,129.613,53.84
0.107715,128.98,53.9
0.107861,128.33,53.96
0.108008,127.8,54.02
0.108105,127.072,54.08
0.108252,126.507,54.14
0.108398,125.936,54.2
0.108496,125.095,54.26
0.108643,124.53,54.32
0.10874,123.379,54.38
0.108887,122.35,54.44
0.109033,120.485,54.5
0.109131,117.973,54.56
0.109277,115.877,54.62
0.109424,113.909,54.68
0.109521,112.559,54.74
0.109668,110.999,54.8
0.109766,109.433,54.86
0.109912,107.336,54.92
0.11001,105.869,54.98
0.110156,104.475,55.04
0.110254,103.008,55.1
0.1104,101.851,55.16
0.110498,101.032,55.22
0.110645,100.141,55.28
0.110742,99.5855,55.34
0.11084,98.787,55.4
0.110986,98.331,55.46
0.111084,97.9153,55.52
0.11123,97.2111,55.58
0.111328,96.9281,55.64
0.111426,96.2552,55.7
0.111572,95.8505,55.76
0.11167,95.3841,55.82
0.111816,94.6863,55.88
0.111914,94.3446,55.94
0.112012,93.7907,56
0.112158,93.4691,56.06
0.112256,93.0037,56.12
0.112354,92.577,56.18
0.112451,92.1499,56.24
0.112598,91.5834,56.3
0.112695,91.2869,56.36
0.112793,90.8112,56.42
0.112891,90.355,56.48
0.113037,90.019,56.54
0.113135,89.4218,56.6
0.113232,89.0829,56.66
0.113379,88.8074,56.72
0.113477,88.063,56.78
0.113574,87.7714,56.84
0.1137207,87.2414,56.9
0.113818,87.0013,56.96
0.113965,86.3636,57.02
0.114063,85.6681,57.08
0.114209,84.9782,57.14
0.114307,84.1724,57.2
0.114453,83.673,57.26
0.114551,82.967,57.32
0.114697,82.409,57.38
0.114795,81.8707,57.44
0.114941,81.1919,57.5
0.115088,80.6834,57.56
0.115234,80.0352,57.62
0.115381,79.4248,57.68
0.115479,78.7006,57.74
0.115625,77.8929,57.8
0.115723,77.3791,57.86
0.115869,76.5239,57.92
0.116016,75.9243,57.98
0.116162,75.3165,58.04
0.11626,74.5105,58.1
0.116406,73.9513,58.16
0.116504,73.2099,58.22
0.11665,72.6472,58.28
0.116748,71.9441,58.34
0.116895,71.145,58.4
0.116992,70.4798,58.46
0.117139,69.5343,58.52
0.117236,68.8852,58.58
0.117383,68.1425,58.64
0.11748,67.4435,58.7
0.117627,66.9405,58.76
0.117725,66.1881,58.82
0.117822,65.7264,58.88
0.117969,65.2699,58.94
0.118066,64.8235,59
0.118213,64.4957,59.06
0.118311,63.948,59.12
0.118408,63.6562,59.18
0.118555,63.2726,59.24
0.118652,62.9675,59.3
0.118799,62.6617,59.36
0.118896,62.2741,59.42
0.118994,62.1095,59.48
0.119141,61.706,59.54
0.119238,61.3696,59.6
0.119336,61.2044,59.66
0.119434,60.8011,59.72
0.11958,60.643,59.78
0.119678,60.3154,59.84
0.119775,60.0925,59.9
0.119922,60.0069,59.96
0.12002,59.6258,60.02
0.120117,59.547,60.08
0.120215,59.2082,60.14
0.120361,59.0733,60.2
0.120459,58.8456,60.26
0.120605,58.5579,60.32
0.120703,58.5057,60.38
0.12085,58.1806,60.44
0.120947,58.1223,60.5
0.121094,57.9196,60.56
0.121191,57.6718,60.62
0.121338,57.6144,60.68
0.121436,57.2456,60.74
0.121582,57.1891,60.8
0.121729,56.8927,60.86
0.121875,56.6731,60.92
0.121973,56.4911,60.98
0.122119,56.2319,61.04
0.122217,56.171,61.1
0.122363,55.8096,61.16
0.122461,55.5375,61.22
0.122607,55.4398,61.28
0.122754,55.1213,61.34
0.122852,54.979,61.4
0.122998,54.6523,61.46
0.123096,54.4587,61.52
0.123242,54.2804,61.58
0.12334,53.8844,61.64
0.123486,53.6688,61.7
0.123584,53.4271,61.76
0.12373,53.1523,61.82
0.123828,52.8739,61.88
0.123975,52.6203,61.94
0.124072,52.432,62
0.12417,52.0034,62.06
0.124316,51.8121,62.12
0.124414,51.6411,62.18
0.124561,51.3478,62.24
0.124658,51.2224,62.3
0.124805,50.739,62.36
0.124902,50.7171,62.42
0.125,50.4373,62.48
0.125146,50.1039,62.54
0.125244,50.0604,62.6
0.125342,49.5877,62.66
0.125439,49.5222,62.72
0.125586,49.3503,62.78
0.125684,48.9956,62.84
0.12583,48.8254,62.9
0.125928,47.4987,62.96
0.126025,47.2669,63.02
0.126123,46.8597,63.08
0.126221,46.5282,63.14
0.126367,46.2154,63.2
0.126465,45.8354,63.26
0.126563,45.74,63.32
0.126709,45.2978,63.38
0.126807,45.0542,63.44
0.126904,44.9482,63.5
0.127051,44.5351,63.56
0.127148,44.4715,63.62
0.127246,44.1259,63.68
0.127393,44.2676,63.74
0.127539,43.9131,63.8
0.127637,43.5924,63.86
0.127734,43.4929,63.92
0.127881,43.3554,63.98
0.127979,43.308,64.04
0.128125,43.1323,64.1
0.128271,42.8067,64.16
0.128369,42.7855,64.22
0.128516,42.5548,64.28
0.128662,42.5076,64.34
0.12876,42.3178,64.4
0.128906,42.1511,64.46
0.129053,42.2173,64.52
0.12915,41.856,64.58
0.129297,41.7257,64.64
0.129395,41.559,64.7
0.129541,41.3774,64.76
0.129639,41.3645,64.82
0.129785,41.0795,64.88
0.129883,41.1854,64.94
0.130029,40.9723,65
0.130127,40.844,65.06
0.130273,40.7166,65.12
0.130371,40.5538,65.18
0.130518,40.5179,65.24
0.130615,40.3268,65.3
0.130762,40.3021,65.36
0.130859,40.2925,65.42
0.130957,39.9838,65.48
0.131104,40.128,65.54
0.131201,40.0178,65.6
0.131348,39.8157,65.66
0.131445,39.8607,65.72
0.131543,39.7249,65.78
0.131689,39.7849,65.84
0.131787,39.5853,65.9
0.131885,39.5112,65.96
0.132031,39.51,66.02
0.132129,39.3419,66.08
0.132275,39.4161,66.14
0.132373,39.1869,66.2
0.132471,39.213,66.26
0.132568,39.0937,66.32
0.132715,38.9718,66.38
0.132813,38.96,66.44
0.13291,38.773,66.5
0.133008,38.7906,66.56
0.133154,38.6904,66.62
0.133252,38.6068,66.68
0.13335,38.7584,66.74
0.133447,38.4801,66.8
0.133594,38.518,66.86
0.133691,38.4036,66.92
0.133838,38.3366,66.98
0.133936,38.3993,67.04
0.134082,38.2007,67.1
0.13418,38.2711,67.16
0.134326,38.3078,67.22
0.134424,38.1749,67.28
0.13457,38.1868,67.34
0.134668,38.0458,67.4
0.134814,38.0827,67.46
0.134961,37.9183,67.52
0.135059,37.9577,67.58
0.135205,37.9933,67.64
0.135352,37.8909,67.7
0.135498,37.9076,67.76
0.135645,37.7079,67.82
0.135742,37.7222,67.88
0.135889,37.7189,67.94
0.136035,37.6486,68
0.136133,37.6716,68.06
0.13623,37.6028,68.12
0.136377,37.5618,68.18
0.136523,37.4595,68.24
0.136621,37.3144,68.3
0.136768,37.4276,68.36
0.136914,37.3087,68.42
0.137012,37.3823,68.48
0.137158,37.2388,68.54
0.137256,37.1575,68.6
0.137354,37.2461,68.66
0.1375,37.0311,68.72
0.137598,37.1372,68.78
0.137744,37.0272,68.84
0.137842,36.8963,68.9
0.137988,36.9405,68.96
0.138086,36.722,69.02
0.138184,36.7611,69.08
0.13833,36.6476,69.14
0.138428,36.6414,69.2
0.138525,36.67,69.26
0.138672,36.4588,69.32
0.13877,36.5548,69.38
0.138867,36.5232,69.44
0.139014,36.3253,69.5
0.139111,36.4048,69.56
0.139209,36.1946,69.62
0.139355,36.3042,69.68
0.139453,36.1514,69.74
0.1396,36.187,69.8
0.139697,36.154,69.86
0.139795,36.0251,69.92
0.139893,36.0942,69.98
0.140039,35.9437,70.04
0.140137,35.9579,70.1
0.140234,35.9081,70.16
0.140381,35.811,70.22
0.140479,35.895,70.28
0.140625,35.6916,70.34
0.140723,35.7152,70.4
0.140869,35.5684,70.46
0.140967,35.5347,70.52
0.141113,35.7018,70.58
0.141211,35.5509,70.64
0.141357,35.573,70.7
0.141504,35.3358,70.76
0.141602,35.3177,70.82
0.141748,35.312,70.88
0.141895,35.1186,70.94
0.141992,35.1657,71
0.142139,35.1349,71.06
0.142285,35.0573,71.12
0.142383,35.1328,71.18
0.142529,34.8158,71.24
0.142676,34.9632,71.3
0.142773,34.8235,71.36
0.14292,34.7752,71.42
0.143018,34.8409,71.48
0.143115,34.674,71.54
0.143262,34.7143,71.6
0.143359,34.6234,71.66
0.143506,34.6369,71.72
0.143604,34.5845,71.78
0.14375,34.4525,71.84
0.143896,34.6019,71.9
0.143994,34.2992,71.96
0.144092,34.4087,72.02
0.144238,34.337,72.08
0.144336,34.2311,72.14
0.144482,34.39,72.2
0.14458,34.1177,72.26
0.144678,34.2053,72.32
0.144824,34.146,72.38
0.144922,34.0465,72.44
0.145068,34.1305,72.5
0.145166,33.9583,72.56
0.145264,34.0258,72.62
0.14541,33.8784,72.68
0.145508,33.9265,72.74
0.145605,33.9089,72.8
0.145752,33.7222,72.86
0.14585,33.8273,72.92
0.145947,33.7273,72.98
0.146094,33.6777,73.04
0.146191,33.6676,73.1
0.146289,33.4755,73.16
0.146387,33.6046,73.22
0.146533,33.4373,73.28
0.146631,33.4565,73.34
0.146729,33.4535,73.4
0.146875,33.2354,73.46
0.146973,33.3803,73.52
0.14707,33.196,73.58
0.147217,33.217,73.64
0.147314,33.2187,73.7
0.147461,33.029,73.76
0.147559,33.2391,73.82
0.147705,32.9743,73.88
0.147803,33.066,73.94
0.147949,32.8715,74
0.1480957,32.8616,74.06
0.148193,32.9515,74.12
0.14834,32.7543,74.18
0.148486,32.7357,74.24
0.148584,32.6909,74.3
0.14873,32.5558,74.36
0.148828,32.5819,74.42
0.148975,32.3648,74.48
0.149121,32.3933,74.54
0.149219,32.2709,74.6
0.149365,32.3162,74.66
0.149512,32.129,74.72
0.149609,31.955,74.78
0.149756,32.0796,74.84
0.149854,31.9554,74.9
0.15,31.8578,74.96
0.150098,31.924,75.02
0.150244,31.6987,75.08
0.150342,31.8122,75.14
0.150488,31.6281,75.2
0.150586,31.5146,75.26
0.150732,31.642,75.32
0.15083,31.4936,75.38
0.150977,31.5252,75.44
0.151074,31.3953,75.5
0.151172,31.4291,75.56
0.151318,31.3507,75.62
0.151416,31.216,75.68
0.151514,31.303,75.74
0.15166,31.1064,75.8
0.151758,31.1487,75.86
0.1519043,31.0394,75.92
0.152002,30.9078,75.98
0.1521,31.005,76.04
0.152246,30.7021,76.1
0.152344,30.7816,76.16
0.152441,30.6404,76.22
0.152539,30.6559,76.28
0.152686,30.6592,76.34
0.152783,27.7555,76.4
0.152881,27.7002,76.46
0.153027,27.4765,76.52
0.153125,27.2372,76.58
0.153223,27.0451,76.64
0.153369,26.7646,76.7
0.153467,25.8787,76.76
0.153564,25.3454,76.82
0.153711,25.2593,76.88
0.153809,25.2006,76.94
0.153955,25.0703,77
0.154053,25.2122,77.06
0.154199,25.0179,77.12
0.154297,25.0723,77.18
0.154443,25.0232,77.24
0.154541,24.9228,77.3
0.154687,25.0282,77.36
0.154785,24.7638,77.42
0.154932,24.8495,77.48
0.155078,24.8363,77.54
0.155176,24.7823,77.6
0.155322,24.8501,77.66
0.155469,24.6159,77.72
0.155566,24.7253,77.78
0.155713,24.6917,77.84
0.155811,24.5583,77.9
0.155957,24.7021,77.96
0.156104,24.4832,78.02
0.156201,24.6474,78.08
0.156348,24.5064,78.14
0.156445,24.4518,78.2
0.156592,24.4741,78.26
0.156689,24.2826,78.32
0.156836,24.3954,78.38
0.156934,24.3262,78.44
0.15708,24.307,78.5
0.157178,24.3379,78.56
0.157324,24.1374,78.62
0.157422,24.3404,78.68
0.157568,24.1606,78.74
0.157666,24.1133,78.8
0.157812,24.1989,78.86
0.15791,23.987,78.92
0.158008,24.1718,78.98
0.158154,23.9688,79.04
0.158252,24.1302,79.1
0.158398,24.0761,79.16
0.158496,23.9422,79.22
0.158594,24.0063,79.28
0.15874,23.9258,79.34
0.158838,24.0455,79.4
0.158936,24.045,79.46
0.159082,23.9754,79.52
0.15918,24.0773,79.58
0.159277,23.8272,79.64
0.159424,23.9139,79.7
0.159521,23.8698,79.76
0.159619,23.7726,79.82
0.159717,23.8918,79.88
0.159863,23.7541,79.94
0.159961,23.7625,80
0.160059,23.7923,80.06
0.160205,23.6178,80.12
0.160303,23.7799,80.18
0.1604,23.5691,80.24
0.160547,23.7072,80.3
0.160645,23.6462,80.36
0.160742,23.6027,80.42
0.160889,23.6606,80.48
0.160938,22.872,80.514